time,angSpeedX,angSpeedY,angSpeedZ,accelX,accelY,accelZ,magnetX,magnetY,magnetZ,altitude,latitude,longitude,state
862.08,0.02,-0.01,-0.09,9.41,0.47,0.00,-44.27,20.91,-3.88,0.20,0.000000,0.000000,0
862.29,0.01,-0.01,-0.09,9.41,0.94,0.00,-44.27,21.00,-3.98,0.68,0.000000,0.000000,0
862.51,0.02,-0.01,-0.09,9.41,0.94,-0.47,-44.55,21.00,-3.98,0.97,0.000000,0.000000,0
862.72,0.02,-0.01,-0.09,9.41,0.94,-0.94,-44.18,21.27,-3.78,0.58,0.000000,0.000000,0
862.93,0.02,-0.01,-0.09,9.89,0.47,-0.47,-44.09,20.91,-3.98,0.68,0.000000,0.000000,0
863.14,0.01,-0.01,-0.09,9.41,0.47,0.00,-44.27,21.00,-3.78,0.39,0.000000,0.000000,0
863.36,0.01,-0.01,-0.09,9.41,0.94,0.47,-44.18,21.09,-3.88,0.10,0.000000,0.000000,0
863.57,0.02,-0.01,-0.09,9.41,0.47,-0.47,-44.18,20.91,-3.98,0.39,0.000000,0.000000,0
863.78,0.02,-0.01,-0.09,9.41,0.94,0.00,-44.55,21.09,-3.88,0.68,0.000000,0.000000,0
863.99,0.01,-0.01,-0.09,9.41,0.47,0.00,-44.27,21.36,-3.88,-0.10,0.000000,0.000000,0
864.20,0.02,-0.01,-0.09,9.41,0.47,0.00,-44.36,21.18,-3.88,0.20,0.000000,0.000000,0
864.41,0.01,-0.01,-0.09,9.41,0.47,0.00,-44.45,21.27,-4.08,0.20,0.000000,0.000000,0
864.63,0.02,-0.01,-0.09,9.41,0.94,-0.47,-44.27,20.91,-3.98,-0.10,0.000000,0.000000,0
864.84,0.02,-0.01,-0.09,9.41,0.47,0.00,-44.18,21.09,-3.98,-1.07,0.000000,0.000000,0
865.05,0.02,-0.01,-0.09,9.41,0.94,1.41,-44.27,20.82,-3.78,0.10,0.000000,0.000000,0
865.26,0.02,-0.01,-0.09,8.94,0.47,0.00,-44.45,21.09,-3.98,0.00,0.000000,0.000000,0
865.48,0.01,-0.01,-0.09,8.94,0.47,-0.94,-43.91,21.09,-3.98,0.39,0.000000,0.000000,0
865.69,0.02,-0.01,-0.09,9.41,0.94,-0.47,-44.27,20.82,-3.78,0.58,0.000000,0.000000,0
865.90,0.01,-0.00,-0.09,14.59,2.82,0.94,-44.27,20.91,-3.78,0.58,0.000000,0.000000,0
866.11,0.03,-0.01,-0.09,8.94,0.00,0.00,-44.36,21.00,-3.88,0.68,0.000000,0.000000,0
866.33,0.07,-0.01,-0.11,81.91,-1.41,3.30,-44.00,21.09,-4.08,1.65,0.000000,0.000000,0
866.54,0.57,-0.08,0.18,70.61,0.47,1.88,-42.36,22.09,-3.16,5.92,0.000000,0.000000,0
866.75,1.36,-0.04,-0.18,80.49,0.47,-1.41,-43.91,17.91,-6.94,10.09,0.000000,0.000000,0
866.97,1.59,-0.11,-0.03,81.91,0.00,0.00,-43.36,13.09,-9.49,17.37,0.000000,0.000000,0
867.18,1.76,-0.11,0.12,82.38,-0.47,0.94,-43.64,8.73,-9.69,26.90,0.000000,0.000000,0
867.39,1.69,-0.09,0.12,82.85,0.94,0.94,-43.64,5.27,-9.29,44.12,0.000000,0.000000,0
867.61,1.79,-0.22,-0.12,86.61,0.94,0.94,-44.27,2.09,-7.14,63.62,0.000000,0.000000,0
867.82,1.76,-0.40,-0.36,87.55,0.94,0.47,-45.36,-2.73,-1.12,77.97,0.000000,0.000000,0
868.03,2.20,-0.37,-0.33,85.67,0.47,0.94,-44.64,-6.91,11.12,98.02,0.000000,0.000000,0
868.25,3.04,-0.07,-0.33,84.73,0.94,1.88,-44.09,-3.36,20.61,124.78,0.000000,0.000000,0
868.46,3.46,-0.05,-0.48,81.43,0.47,2.35,-44.27,4.64,26.02,144.91,0.000000,0.000000,0
868.67,4.00,-0.05,-0.29,80.49,-0.47,0.47,-44.55,15.73,24.18,174.55,0.000000,0.000000,0
868.88,4.41,0.04,-0.25,79.55,0.47,0.47,-44.91,23.55,11.02,206.16,0.000000,0.000000,0
869.10,4.70,-0.10,-0.25,78.61,-0.47,1.41,-44.00,18.18,-5.20,236.87,0.000000,0.000000,0
869.31,4.98,-0.04,-0.16,77.67,0.47,1.41,-43.73,3.45,-9.08,273.94,1214.233398,0.000000,0
869.52,5.00,-0.12,-0.23,76.73,0.47,0.00,-43.91,-8.18,2.76,309.85,1214.233398,0.000000,0
869.74,5.00,0.01,-0.23,74.84,0.47,0.47,-44.73,-2.36,20.51,351.49,0.000000,0.000000,0
869.95,5.00,-0.02,-0.24,75.79,-0.47,1.41,-45.27,14.73,22.86,393.81,0.000000,0.000000,0
870.16,5.00,0.09,-0.32,67.78,-1.41,0.00,-44.82,19.45,-1.33,436.81,0.000000,0.000000,0
870.38,5.00,0.15,-0.16,48.01,-2.82,-0.94,-43.27,4.18,-9.59,484.05,0.000000,0.000000,0
870.59,4.72,0.08,-0.20,19.30,-2.35,-0.94,-43.27,-7.55,0.31,538.86,0.000000,0.000000,0
870.80,4.10,0.13,-0.19,-0.94,-2.82,1.41,-43.64,-8.36,15.10,600.13,0.000000,0.000000,0
871.01,3.07,0.07,0.11,-9.41,-4.24,0.00,-44.73,1.18,22.76,659.60,0.000000,0.000000,0
871.23,3.11,-0.05,-0.32,-8.00,-0.47,0.00,-45.45,11.27,22.96,714.11,0.000000,0.000000,0
871.44,2.92,0.17,-0.00,-8.94,-2.35,-1.41,-46.00,19.00,16.22,774.45,0.000000,0.000000,0
871.65,2.91,-0.06,-0.10,-8.47,-0.94,0.94,-45.36,22.00,7.65,830.53,0.000000,0.000000,0
871.87,3.12,0.11,-0.23,-8.47,-1.41,0.00,-44.55,18.64,-3.16,887.86,0.000000,0.000000,0
872.08,3.05,0.01,-0.01,-6.59,0.47,0.94,-43.91,11.00,-9.29,943.82,0.000000,0.000000,0
872.29,3.14,-0.11,-0.10,-7.06,-0.94,-1.88,-43.09,0.91,-9.08,999.98,0.000000,0.000000,0
872.51,3.39,0.08,-0.20,-8.47,-0.47,-0.94,-43.91,-7.91,1.22,1053.44,0.000000,0.000000,0
872.72,3.33,0.05,-0.07,-6.59,-0.94,0.47,-44.18,-7.55,12.96,1108.05,0.000000,0.000000,0
872.93,3.44,-0.04,-0.19,-5.65,-1.41,-0.47,-45.09,-0.09,21.73,1159.92,0.000000,0.000000,0
873.14,3.54,0.06,-0.09,-5.65,-0.94,1.41,-45.64,10.82,23.57,1212.70,0.000000,0.000000,0
873.36,3.52,0.07,-0.11,-6.12,-2.82,2.35,-46.00,19.45,15.61,1264.34,0.000000,0.000000,0
873.57,3.51,-0.04,-0.14,-4.71,-1.41,0.47,-45.18,20.91,3.57,1313.93,0.000000,0.000000,0
873.78,3.67,0.03,-0.19,-4.24,-0.47,0.47,-45.00,14.91,-6.12,1364.86,0.000000,0.000000,0
874.00,3.61,0.09,-0.15,-3.77,-1.41,-0.47,-43.45,3.45,-9.49,1414.62,0.000000,0.000000,0
874.21,3.39,0.02,-0.07,-4.24,-0.94,0.00,-43.00,-5.64,-3.27,1462.82,0.000000,0.000000,0
874.42,3.53,0.02,-0.22,-4.24,0.00,-0.94,-44.18,-8.55,7.65,1511.26,0.000000,0.000000,0
874.64,3.50,0.07,-0.12,-3.77,-1.88,0.00,-44.09,-4.36,18.98,1560.04,0.000000,0.000000,0
874.85,3.50,0.11,-0.12,-4.71,-0.94,-0.94,-45.73,9.91,22.65,1605.21,0.000000,0.000000,0
875.06,3.46,0.01,-0.05,-4.71,0.47,-1.41,-45.82,19.18,16.94,1652.29,0.000000,0.000000,0
875.27,3.68,0.03,-0.21,-4.71,-1.41,-0.94,-44.91,21.36,4.18,1696.61,0.000000,0.000000,0
875.49,3.66,-0.00,-0.10,-4.24,-0.94,0.47,-44.73,15.45,-5.41,1741.82,0.000000,0.000000,0
875.70,3.73,-0.00,-0.16,-4.71,-0.94,-0.47,-43.55,4.64,-9.39,1785.74,0.000000,0.000000,0
875.91,3.62,-0.06,-0.07,-5.18,-1.41,-0.47,-44.00,-5.18,-2.96,1828.45,0.000000,0.000000,0
876.13,3.70,0.03,-0.07,-3.30,0.47,0.00,-44.64,-6.82,8.78,1871.58,0.000000,0.000000,0
876.34,3.73,-0.15,-0.23,-3.77,-0.94,-0.94,-45.55,-1.91,18.88,1913.38,0.000000,0.000000,0
876.55,3.77,0.11,-0.12,-3.30,-0.94,0.00,-45.45,8.82,23.37,1956.77,0.000000,0.000000,0
876.76,3.76,-0.03,-0.23,-3.30,-0.94,-0.47,-45.91,17.91,16.33,1996.33,0.000000,0.000000,0
876.98,3.61,0.05,-0.04,-3.30,-0.47,0.00,-45.64,20.45,6.12,2037.94,0.000000,0.000000,0
877.19,3.66,-0.00,-0.22,-2.82,-0.47,-0.94,-44.82,12.36,-7.24,2076.40,0.000000,0.000000,0
877.40,3.51,-0.01,-0.05,-3.30,-0.47,0.00,-44.00,1.82,-7.24,2117.04,0.000000,0.000000,0
877.62,3.59,0.00,-0.19,-2.82,0.00,0.00,-43.91,-5.64,-0.71,2154.49,0.000000,0.000000,0
877.83,3.48,-0.09,-0.11,-3.30,-0.47,-0.94,-44.18,-7.09,11.22,2192.80,0.000000,0.000000,0
878.04,3.57,0.07,-0.13,-2.82,-0.94,0.94,-45.73,-0.09,20.10,2230.90,0.000000,0.000000,0
878.26,3.52,-0.02,-0.15,-2.35,-0.94,-0.47,-46.64,9.64,21.43,2267.21,0.000000,0.000000,0
878.47,3.57,-0.02,-0.17,-2.35,-0.47,-0.94,-46.09,18.00,16.73,2304.13,0.000000,0.000000,0
878.68,3.62,0.00,-0.16,-2.35,-0.94,0.00,-45.73,20.36,5.82,2339.49,0.000000,0.000000,0
878.89,3.62,-0.01,-0.17,-1.88,-0.94,-0.47,-45.18,15.55,-4.08,2374.73,0.000000,0.000000,0
879.11,3.60,0.00,-0.14,-2.82,-0.94,0.00,-44.73,5.73,-7.65,2409.85,0.000000,0.000000,0
879.32,3.64,0.06,-0.19,-1.41,-0.94,-0.94,-44.18,-5.64,0.00,2443.61,0.000000,0.000000,0
879.53,3.49,-0.04,-0.12,-2.35,-0.47,-1.88,-44.64,-6.73,11.02,2477.36,0.000000,0.000000,0
879.75,3.40,0.09,-0.06,-1.41,0.00,0.00,-45.55,-0.27,19.49,2510.98,0.000000,0.000000,0
879.96,3.29,0.02,-0.12,-1.41,0.47,-1.41,-46.55,9.18,21.02,2542.85,0.000000,0.000000,0
880.17,3.29,-0.02,-0.14,-1.88,-0.47,-0.47,-46.27,16.82,16.53,2574.70,0.000000,0.000000,0
880.39,3.25,0.01,-0.12,-1.41,-1.41,0.47,-46.27,20.00,7.76,2606.65,0.000000,0.000000,0
880.60,3.28,0.06,-0.18,-1.88,0.00,0.47,-45.55,17.36,-1.53,2638.96,0.000000,0.000000,0
880.81,3.19,-0.03,-0.20,-1.41,-0.94,-0.47,-44.73,8.64,-7.24,2666.44,0.000000,0.000000,0
881.02,3.05,0.08,-0.04,-1.41,-0.47,-0.94,-44.82,0.45,-5.31,2698.18,0.000000,0.000000,0
881.24,2.98,0.10,-0.13,-0.94,-0.47,-0.47,-44.45,-4.73,-0.31,2726.60,0.000000,0.000000,0
881.45,2.83,-0.07,-0.11,-1.41,0.00,-0.94,-44.64,-6.73,7.76,2754.72,0.000000,0.000000,0
881.66,2.72,-0.05,0.01,-1.41,0.00,0.00,-45.45,-1.00,18.37,2784.45,0.000000,0.000000,0
881.87,2.79,0.03,-0.15,-1.41,0.00,-0.47,-46.00,7.09,21.22,2811.97,0.000000,0.000000,0
882.08,2.76,-0.07,-0.22,-1.41,-0.47,0.00,-46.36,13.18,19.59,2838.79,0.000000,0.000000,0
882.30,2.72,0.01,-0.16,-1.41,-0.47,-0.47,-46.36,17.91,14.39,2866.07,0.000000,0.000000,0
882.51,2.70,0.12,-0.21,-1.41,-0.47,0.00,-46.09,19.00,6.63,2892.78,0.000000,0.000000,0
882.72,2.64,0.09,-0.22,-0.94,-0.94,-0.47,-45.82,15.64,-1.53,2918.28,0.000000,0.000000,0
882.93,2.52,0.05,-0.12,-0.94,-0.94,-0.94,-45.09,9.27,-5.92,2944.22,0.000000,0.000000,0
883.14,2.36,0.06,-0.01,-0.94,0.00,-1.88,-44.73,3.82,-6.02,2966.33,0.000000,0.000000,0
883.36,2.25,0.00,-0.00,-1.41,0.00,-0.94,-44.64,-0.64,-3.98,2990.84,0.000000,0.000000,0
883.57,2.18,-0.06,-0.05,-0.94,0.00,-0.47,-45.00,-3.36,1.02,3015.94,0.000000,0.000000,0
883.78,2.15,-0.10,-0.09,-0.94,0.00,-0.47,-45.73,-4.18,7.24,3039.52,0.000000,0.000000,0
883.99,2.26,-0.07,-0.17,-1.41,0.00,-0.94,-45.91,-2.64,13.37,3062.51,0.000000,0.000000,0
884.21,2.28,-0.02,-0.18,-1.41,-0.47,0.00,-46.55,2.00,18.98,3085.15,0.000000,0.000000,0
884.42,2.21,0.01,-0.11,-0.94,-0.47,-0.94,-46.36,7.36,20.41,3107.19,0.000000,0.000000,0
884.63,2.12,0.06,-0.03,-0.94,-0.47,0.00,-46.73,13.00,18.57,3128.35,0.000000,0.000000,0
884.85,2.06,0.07,-0.03,-0.94,0.00,-0.94,-46.55,17.64,13.78,3148.90,0.000000,0.000000,0
885.06,2.00,0.05,-0.06,-0.94,-0.47,-0.94,-46.18,19.91,7.96,3169.88,0.000000,0.000000,0
885.27,1.93,-0.01,-0.11,-0.94,-0.47,-0.47,-45.27,18.73,1.63,3190.78,0.000000,0.000000,0
885.48,1.89,-0.04,-0.12,-0.94,0.47,-1.41,-45.27,16.00,-2.76,3211.59,0.000000,0.000000,0
885.70,1.88,-0.03,-0.12,-0.94,-0.47,-0.94,-45.09,11.73,-5.71,3229.90,0.000000,0.000000,0
885.91,1.91,-0.02,-0.14,-0.47,-0.47,-0.47,-44.73,6.91,-6.43,3248.52,0.000000,0.000000,0
886.12,1.96,0.00,-0.20,-0.94,0.00,-0.47,-44.82,1.45,-5.41,3267.30,0.000000,0.000000,0
886.34,1.99,-0.02,-0.25,-0.94,0.00,-0.94,-44.27,-3.55,-2.04,3285.86,0.000000,0.000000,0
886.55,1.94,-0.06,-0.19,-0.94,-0.47,0.00,-44.27,-7.73,5.71,3302.29,0.000000,0.000000,0
886.76,1.87,-0.04,-0.10,-0.94,-0.94,-0.94,-44.36,-6.55,12.55,3318.89,0.000000,0.000000,0
886.98,1.80,0.03,-0.06,-0.94,0.47,-0.47,-44.82,-3.27,17.45,3336.73,0.000000,0.000000,0
887.19,1.75,0.06,-0.06,-0.47,0.47,-0.47,-45.64,1.45,20.82,3351.76,0.000000,0.000000,0
887.40,1.70,0.03,-0.09,-0.47,0.00,-0.94,-46.36,6.27,21.22,3367.49,0.000000,0.000000,0
887.61,1.63,-0.03,-0.07,-0.94,-0.47,-0.47,-46.09,11.00,20.31,3382.56,0.000000,0.000000,0
887.83,1.53,-0.05,-0.01,0.00,-0.47,-0.47,-46.18,15.55,18.78,3397.39,0.000000,0.000000,0
888.04,1.50,0.00,-0.00,-0.94,0.00,0.00,-46.00,19.00,15.71,3410.74,0.000000,0.000000,0
888.25,1.52,0.06,-0.05,-0.47,-0.94,-0.94,-45.09,21.45,10.51,3425.20,0.000000,0.000000,0
888.47,1.54,0.08,-0.12,-0.94,0.00,-0.94,-45.00,22.09,4.69,3438.46,0.000000,0.000000,0
888.68,1.52,0.05,-0.17,-0.47,0.00,-0.47,-44.27,19.27,-3.16,3451.45,0.000000,0.000000,0
888.89,1.47,0.00,-0.19,-0.94,0.00,0.00,-44.36,14.91,-7.04,3464.20,0.000000,0.000000,0
889.11,1.43,-0.04,-0.18,0.00,-0.47,-0.47,-43.73,10.18,-8.98,3475.58,0.000000,0.000000,0
889.32,1.39,-0.05,-0.16,0.00,0.00,-0.47,-44.00,5.09,-8.78,3488.22,0.000000,1214.566650,0
889.53,1.37,-0.03,-0.15,0.00,-0.47,-0.47,-44.00,0.82,-7.55,3498.67,0.000000,1214.566650,0
889.75,1.37,-0.01,-0.16,0.00,-0.47,-0.47,-43.73,-2.82,-5.00,3510.23,0.000000,0.000000,0
889.96,1.38,-0.02,-0.18,-0.47,0.47,0.00,-43.55,-6.00,-1.12,3519.60,0.000000,0.000000,0
890.17,1.35,-0.05,-0.19,0.00,-0.47,-0.94,-43.36,-8.27,3.06,3529.67,0.000000,0.000000,0
890.38,1.32,-0.09,-0.18,-0.47,0.00,-0.94,-43.45,-9.27,8.27,3539.06,0.000000,0.000000,0
890.60,1.28,-0.12,-0.14,-0.47,0.00,-0.94,-43.73,-8.55,13.88,3547.77,0.000000,0.000000,0
890.81,1.23,-0.14,-0.09,0.00,-0.47,-0.94,-43.64,-6.27,19.18,3557.18,0.000000,0.000000,0
891.02,1.19,-0.13,-0.04,0.00,-0.47,-0.47,-43.36,-1.00,25.20,3565.21,0.000000,0.000000,0
891.23,1.16,-0.10,0.01,0.00,0.00,-0.47,-42.91,3.91,27.76,3572.56,0.000000,0.000000,0
891.45,1.13,-0.07,0.04,0.00,0.00,-0.94,-42.82,9.73,28.37,3579.35,0.000000,0.000000,0
891.66,1.11,-0.02,0.05,0.00,-0.47,-0.94,-42.55,15.82,27.76,3586.43,0.000000,0.000033,0
891.87,1.08,0.02,0.04,-0.47,0.00,-0.47,-42.73,20.82,24.59,3592.54,0.000000,0.000033,0
892.09,1.06,0.05,0.04,-0.47,-0.47,-0.47,-42.27,25.09,20.71,3598.52,0.000000,0.000000,0
892.30,1.03,0.07,0.03,0.00,0.00,-0.47,-41.45,28.18,15.61,3603.67,0.000000,0.000000,0
892.51,1.00,0.09,0.02,-0.47,-0.47,-0.47,-40.64,30.36,9.69,3609.09,0.000000,0.000000,0
892.73,0.97,0.12,0.02,0.00,-0.47,-0.47,-39.27,31.09,3.16,3613.27,0.000000,0.000000,0
892.94,0.94,0.15,0.00,0.00,0.00,-0.47,-37.91,30.45,-2.96,3618.00,0.000000,0.000000,0
893.15,0.92,0.18,-0.02,0.00,-0.47,0.00,-36.45,28.82,-9.90,3621.35,0.000000,0.000000,0
893.36,0.94,0.22,-0.05,0.00,0.00,-0.47,-34.09,24.64,-18.47,3625.53,0.000000,0.000000,0
893.58,0.97,0.25,-0.09,0.00,-0.47,-0.47,-31.82,19.82,-23.98,3627.90,0.000000,0.000000,0
893.79,1.00,0.27,-0.15,0.00,-0.47,0.00,-29.09,13.73,-28.57,3629.85,0.000000,0.000000,0
894.00,1.01,0.28,-0.22,0.00,0.00,-0.47,-25.64,6.18,-31.94,3632.50,0.000000,0.000000,0
894.22,1.01,0.26,-0.30,-0.47,0.47,-0.94,-22.82,-2.18,-33.37,3633.48,0.000000,0.000000,0
894.43,0.98,0.22,-0.38,-0.47,0.00,-0.94,-19.18,-10.64,-32.96,3634.32,0.000000,0.000000,0
894.64,0.93,0.16,-0.45,0.00,0.00,-0.47,-15.18,-18.91,-30.10,3634.88,0.000000,0.000000,0
894.86,0.89,0.09,-0.50,-0.47,0.00,-0.47,-11.55,-26.27,-25.31,3635.57,0.000000,0.000000,0
895.07,0.87,0.01,-0.53,0.00,0.00,-0.47,-7.27,-31.91,-19.29,3635.85,0.000000,0.000000,0
895.28,0.88,-0.07,-0.54,-0.47,0.00,-0.47,-3.09,-36.27,-12.35,3635.02,0.000000,0.000000,0
895.50,0.88,-0.15,-0.53,0.00,0.00,-0.94,1.18,-39.09,-3.57,3634.04,0.000000,0.000000,0
895.71,0.88,-0.21,-0.50,0.00,0.47,-1.41,7.36,-39.82,7.35,3631.25,0.000000,0.000000,0
895.92,0.88,-0.28,-0.45,0.00,0.00,-0.94,12.00,-38.45,15.71,3629.71,0.000000,0.000000,0
896.13,0.87,-0.32,-0.40,0.00,0.00,0.00,16.27,-35.00,23.57,3627.34,0.000000,0.000000,0
896.35,0.88,-0.35,-0.33,0.00,-0.47,-0.94,20.73,-30.27,30.10,3625.25,0.000000,0.000000,0
896.56,0.90,-0.34,-0.26,0.00,0.00,-0.94,24.64,-24.73,35.41,3622.18,0.000000,0.000000,0
896.77,0.11,-0.50,-0.24,1.41,-3.30,1.41,28.09,-20.09,37.76,3618.98,0.000000,0.000000,0
896.99,0.63,-0.15,-0.01,-1.88,0.94,-0.94,31.00,-17.45,38.37,3613.55,0.000000,0.000000,0
897.20,1.06,-0.23,-0.44,-0.94,-0.47,1.41,32.00,-11.36,40.92,3610.48,0.000000,0.000000,0
897.41,1.47,-0.03,-0.28,-0.94,0.00,-1.41,33.18,-0.09,43.27,3603.94,0.000000,0.000000,0
897.63,2.27,3.69,-0.43,1.41,0.47,-4.71,23.18,14.00,46.63,3604.08,0.000000,0.000000,0
897.84,-1.02,-0.86,0.26,-6.59,-0.94,-16.95,-10.45,28.36,43.88,3632.64,0.000000,0.000000,0
898.05,-3.55,-0.10,0.67,-57.90,-0.94,38.13,41.36,0.18,38.47,3588.10,0.000000,0.000000,0
898.27,1.39,-0.15,0.43,-40.95,-24.48,5.18,45.73,-9.55,32.04,3582.55,0.000000,0.000000,0
898.48,-2.87,-1.06,6.59,-96.03,39.07,-239.60,-1.45,-37.00,15.71,3595.32,0.000000,0.000000,0
898.69,-0.43,-6.11,0.76,4.71,8.00,-7.53,-12.36,-28.55,27.86,3584.63,0.000000,0.000000,0
898.91,-3.38,5.76,-8.47,11.30,-5.65,-5.18,25.27,-30.27,27.86,3588.24,0.000000,0.000000,0
899.12,1.38,-0.19,0.43,-13.18,-18.36,25.42,47.09,-30.55,5.10,3569.37,0.000000,0.000000,0
899.33,-9.11,-1.58,2.54,-15.06,-10.83,11.77,44.00,25.45,-33.27,3567.71,0.000000,0.000000,0
899.55,-5.88,-1.07,1.77,-66.37,-49.43,177.93,64.91,10.09,2.86,3565.91,0.000000,0.000000,0
899.76,2.82,0.41,4.81,-3.77,12.24,-6.59,64.73,-9.73,2.14,3562.58,0.000000,0.000000,0
899.97,-2.94,7.71,-2.85,-2.35,13.18,-7.53,18.91,-36.18,21.53,3563.69,0.000000,0.000000,0
900.19,-10.34,3.09,-3.61,-11.30,6.59,-14.12,52.64,-22.18,-23.98,3558.98,0.000000,0.000000,0
900.40,-13.57,0.05,-1.67,-10.83,-6.12,-11.77,49.36,25.64,21.84,3554.97,0.000000,0.000000,0
900.61,-11.78,0.66,-4.53,-9.89,2.82,-7.06,62.18,-16.73,-2.65,3551.64,0.000000,0.000000,0
900.82,-8.86,3.43,0.34,-16.00,0.00,-8.47,48.45,-0.82,33.06,3550.81,0.000000,0.000000,0
901.04,-3.02,5.61,2.52,-4.24,-1.41,2.82,28.45,-39.27,5.10,3550.54,0.000000,0.000000,0
901.25,1.09,4.19,1.61,-0.47,7.06,0.47,-9.64,-33.36,-15.41,3547.77,0.000000,0.000000,0
901.46,6.06,-1.73,-7.13,-13.18,-14.12,0.94,34.27,-35.18,14.08,3542.38,0.000000,0.000000,0
901.68,0.97,2.59,4.47,-18.83,6.12,-5.65,52.82,-8.82,26.02,3542.80,0.000000,0.500000,0
901.89,3.95,-6.05,0.88,-10.83,-3.77,2.82,56.27,7.09,22.45,3537.96,0.000000,0.000000,0
902.10,3.06,0.79,1.37,-16.48,-0.47,-0.47,64.36,-9.09,-14.90,3536.58,0.000000,0.000000,0
902.32,3.52,2.15,1.38,-8.00,1.88,8.00,46.73,-26.27,18.37,3536.72,0.000000,0.000000,0
902.53,4.66,1.49,-5.72,-0.47,0.47,-2.35,14.27,14.91,48.67,3533.54,0.000000,0.000000,0
902.74,-0.98,-5.72,-1.09,-3.77,-4.24,0.47,20.45,32.36,37.55,3530.09,0.000000,0.000000,0
902.95,-9.22,-1.29,4.54,-16.00,-8.47,2.35,54.73,-6.73,25.20,3526.36,0.000000,0.000000,0
903.16,-7.29,3.47,3.50,-6.59,2.35,2.35,39.18,-20.82,-36.33,3527.46,0.000000,0.000000,0
903.38,-5.00,4.25,2.75,-4.24,1.41,-1.41,60.45,7.27,-25.61,3521.53,0.000000,0.000000,0
903.59,-2.17,-0.18,0.21,-7.06,4.24,-3.30,64.00,-12.18,0.20,3520.43,0.000000,0.000000,0
903.80,-0.90,3.03,0.62,-11.77,-4.24,7.53,66.18,-5.91,-7.96,3516.71,0.000000,0.000000,0
904.01,-0.32,2.33,2.12,-5.18,0.94,-3.77,47.73,-20.09,24.59,3519.60,0.000000,0.000000,0
904.22,5.14,-3.79,-1.61,-7.06,3.30,-3.30,37.73,-16.73,35.00,3514.64,0.000000,0.000000,0
904.44,7.01,1.45,-0.67,-8.94,8.47,4.71,65.18,11.27,-6.02,3508.58,0.000000,0.000000,0
904.65,4.54,-1.54,-0.07,-11.77,-8.94,-3.30,57.36,24.82,-8.37,3510.51,0.000000,0.000000,0
904.86,1.30,1.58,3.40,-10.36,4.24,-0.94,59.73,-14.36,-22.35,3503.21,0.000000,0.000000,0
905.07,2.00,1.59,0.14,-0.94,-0.94,0.47,55.91,-25.64,-4.18,3501.14,0.000000,0.000000,0
905.28,2.18,1.86,-0.06,-6.12,1.88,-3.77,46.55,-21.27,24.29,3501.00,0.000000,0.000000,0
905.50,3.32,-6.14,1.45,-16.48,10.83,24.95,61.55,-18.27,-2.96,3495.37,0.000000,0.000000,0
905.71,6.94,-1.07,-4.59,-11.77,2.35,0.47,64.27,0.36,9.59,3493.30,0.000000,0.000000,0
905.92,4.33,3.44,-0.55,-4.24,-1.41,7.06,57.82,16.09,-24.59,3491.79,0.000000,0.000000,0
906.14,4.64,1.75,1.11,-8.94,-6.12,-10.83,55.73,18.18,19.08,3491.10,0.000000,0.000000,0
906.35,6.43,-1.04,0.74,-7.06,0.94,-4.71,63.00,16.27,-4.18,3489.59,0.000000,0.000000,0
906.56,7.69,0.84,-0.75,-7.06,-0.94,1.88,64.18,-4.82,-19.69,3487.12,0.000000,0.000000,0
906.78,8.81,1.11,-6.37,-14.59,-1.88,4.71,64.18,10.73,6.73,3480.80,0.000000,0.000000,0
906.99,7.88,4.52,-1.35,-0.94,-5.65,1.41,34.64,26.09,-37.35,3477.64,0.000000,0.000000,0
907.20,8.67,3.48,-0.35,-13.65,-11.77,0.47,64.82,-2.00,7.24,3476.27,0.000000,0.000000,0
907.41,5.75,3.56,1.82,-8.94,-1.41,-6.12,49.00,20.55,26.43,3473.52,0.000000,0.000000,0
907.63,7.64,-1.17,-0.23,-4.71,1.41,3.77,49.18,32.73,-14.80,3471.87,0.000000,0.000000,0
907.84,10.75,-1.37,-8.34,-12.71,0.94,6.59,55.45,-5.82,-32.45,3467.62,0.000000,0.000000,0
908.05,12.50,-3.28,-6.28,-2.82,0.47,1.41,63.64,-12.82,-8.78,3467.21,0.000000,0.000000,0
908.27,10.74,-3.54,-2.54,-8.47,2.35,2.82,55.45,-18.73,-24.90,3462.41,0.000000,0.000000,0
908.48,9.82,-6.60,0.74,-6.12,3.30,-8.94,58.82,-18.00,8.16,3462.96,0.000000,0.000000,0
908.69,11.21,-8.52,-1.19,-14.59,8.00,-5.18,66.73,0.36,-0.71,3458.58,0.000000,0.000000,0
908.91,11.81,-2.29,-2.29,-4.71,-0.94,-1.88,50.73,-28.91,4.18,3455.84,0.000000,0.000000,0
909.12,16.15,-1.07,-5.54,-12.24,-0.94,-3.77,59.09,23.55,-1.73,3452.82,0.000000,0.000000,0
909.33,14.35,-1.11,0.89,-0.94,-0.47,-7.06,23.09,-26.73,34.29,3455.29,0.000000,0.000000,0
909.54,9.61,-0.61,3.69,-5.18,-7.53,-7.06,34.64,42.55,-7.04,3452.55,0.000000,0.000000,0
909.76,3.38,-2.54,1.98,-3.30,1.88,-11.30,58.45,-13.73,-25.41,3445.16,0.000000,0.000000,0
909.97,9.70,-1.53,-3.94,-5.65,5.65,7.06,29.36,-37.55,-15.10,3446.12,0.000000,0.000000,0
910.18,11.72,-4.51,-2.36,-5.65,0.94,0.94,60.55,19.18,6.33,3440.51,0.000000,0.000000,0
910.40,10.58,-1.13,-3.72,-10.36,1.88,3.30,46.18,-22.64,-30.92,3439.14,0.000000,0.000000,0
910.61,12.60,-1.74,-2.46,-2.82,0.94,0.94,63.64,4.55,11.12,3435.58,0.000000,0.000000,0
910.82,10.53,1.94,-8.40,-16.00,-17.42,-2.82,41.91,31.09,-27.35,3436.41,0.000000,0.000000,0
911.04,5.18,4.06,0.38,-3.77,0.94,-0.47,39.00,-26.91,-30.61,3433.95,0.000000,0.000000,0
911.25,2.19,-2.60,-2.66,-5.65,-1.88,-1.41,50.64,-14.27,25.61,3430.53,0.000000,0.000000,0
911.46,-3.38,-3.99,0.97,-15.06,-0.94,16.95,66.36,-4.09,-5.10,3423.16,0.000000,0.000000,0
911.67,-6.29,2.51,1.65,-10.36,-0.47,-3.77,66.27,3.91,-2.04,3421.11,0.000000,0.000000,0
911.89,-3.95,-3.05,-2.74,-54.60,-213.24,-73.90,61.91,0.55,-25.10,3418.79,0.000000,0.000000,0
912.10,1.36,4.66,0.10,-4.24,-5.18,7.06,58.82,15.91,-23.78,3416.61,0.000000,0.000000,0
912.31,4.62,-0.11,1.03,-9.41,0.94,-12.71,59.36,-0.09,18.57,3416.61,0.000000,0.000000,0
912.53,7.35,-2.67,-0.88,-14.59,3.77,7.06,65.36,6.09,-13.88,3411.15,0.000000,0.000000,0
912.74,8.88,2.52,-2.00,-5.65,-10.83,25.89,64.82,-9.55,-13.27,3411.56,0.000000,0.000000,0
912.95,9.53,3.70,-3.64,-3.30,-8.00,1.41,44.82,36.73,6.94,3406.11,0.000000,0.000000,0
913.17,8.11,2.72,-3.05,-7.06,-10.83,0.94,34.36,20.36,-41.73,3405.84,0.000000,0.000000,0
913.38,6.95,1.65,-1.92,-19.30,5.18,-9.89,56.55,-24.64,-10.61,3399.84,0.000000,0.000000,0
913.59,6.63,-0.70,-3.28,-5.65,0.94,9.89,65.27,8.73,2.24,3397.53,0.000000,0.000000,0
913.80,8.00,-0.59,-4.84,-16.48,-13.18,-0.47,50.55,27.36,-24.18,3396.30,0.000000,0.000000,0
914.02,2.11,3.17,-0.08,-2.82,0.47,-0.94,49.27,-10.18,-37.24,3391.94,0.000000,0.000000,0
914.23,0.07,3.07,-2.04,-16.00,-3.77,-2.82,66.91,-1.64,-4.59,3389.23,0.000000,0.000000,0
914.44,-2.50,-0.62,2.20,-6.12,0.00,8.47,64.55,-10.27,0.92,3388.14,0.000000,0.000000,0
914.66,-1.81,3.19,1.93,-8.94,1.88,-2.82,53.00,-26.55,6.12,3388.95,0.000000,0.000333,0
914.87,-2.23,-1.93,-2.49,-1.41,0.47,-1.41,51.00,-29.55,-7.55,3384.46,0.000000,0.000333,0
915.08,-2.94,-1.25,-3.44,-11.30,-2.35,0.00,58.36,-13.18,-26.63,3382.16,0.000000,0.000000,0
915.30,-4.64,1.07,0.14,-8.94,0.00,0.47,48.82,32.00,-17.55,3378.21,0.000000,0.000000,0
915.51,-5.34,-1.68,-0.69,-8.00,0.00,-3.77,50.45,26.45,18.37,3373.46,0.000000,0.000000,0
915.72,-7.92,-1.74,0.35,-11.30,-8.94,0.00,59.36,8.36,18.27,3373.59,0.000000,0.000000,0
915.94,-7.76,-4.09,-4.60,-6.59,2.82,-1.88,62.55,-12.18,-17.65,3366.94,0.000000,0.000000,0
916.15,-4.18,-0.34,-0.71,3.77,-31.07,55.54,30.55,40.45,19.39,3366.26,0.000000,0.000000,0
916.36,-9.16,-4.19,-4.42,5.65,-1.41,-2.82,52.27,2.18,28.06,3361.65,0.000000,0.000000,0
916.57,-11.53,1.91,1.81,-22.12,-2.82,-0.94,59.55,-20.73,-2.35,3359.62,0.000000,0.000000,0
916.79,-11.01,-0.76,2.59,-0.94,-1.88,-1.88,53.55,6.73,-36.02,3360.84,0.000000,0.000000,0
917.00,-7.80,-2.68,6.43,-9.41,-7.06,-3.30,64.09,15.00,-4.39,3356.91,0.000000,0.000000,0
917.21,-2.45,1.84,4.88,-3.77,-9.41,8.47,55.09,8.55,-33.37,3353.11,0.000000,0.000000,0
917.43,-2.70,1.53,-0.19,-3.30,8.47,3.30,47.36,-29.00,-21.43,3353.11,0.000000,0.000000,0
917.64,-5.18,0.76,-8.37,1.41,3.77,-6.59,66.09,1.55,-15.71,3347.96,0.000000,0.000000,0
917.85,-8.99,0.74,-2.08,0.47,-2.35,-3.77,12.27,26.64,43.67,3348.64,0.000000,0.000000,0
918.07,-3.10,1.41,-6.05,0.00,10.36,-4.24,10.55,-38.55,14.90,3344.44,0.000000,0.000000,0
918.28,-10.41,-2.67,-2.12,-6.59,-12.71,-11.30,65.73,2.64,-16.43,3342.00,0.000000,0.000000,0
918.49,-14.13,-3.05,-2.11,-4.24,-12.71,-8.47,40.82,28.82,26.84,3337.27,0.000000,0.000000,0
918.70,-12.78,3.40,2.27,-11.77,-0.94,3.77,52.45,-28.45,-1.63,3333.89,0.000000,0.000000,0
918.92,-11.00,3.24,4.02,-9.89,2.82,6.59,57.82,11.64,-29.08,3332.26,0.000000,0.000000,0
919.13,-10.08,-0.88,4.72,-9.41,-7.06,6.59,63.45,-14.82,-12.24,3331.72,0.000000,0.000000,0
919.34,-7.99,2.83,0.44,-7.06,4.71,9.41,53.27,9.45,-35.41,3326.18,0.000000,0.000000,0
919.56,-6.65,0.44,-1.56,-0.94,8.00,-19.30,50.91,14.45,27.45,3325.91,0.000000,0.000000,0
919.77,-3.88,1.33,-4.35,-5.65,-0.47,-7.06,32.82,2.00,42.86,3322.94,0.000000,0.000000,0
919.98,-6.21,-0.56,-2.17,-8.47,-3.30,-3.77,41.00,-22.45,27.45,3318.08,0.000000,0.000000,0
920.20,-6.52,-0.34,-0.75,-15.53,-6.59,-5.18,57.91,-20.18,-18.16,3315.24,0.000000,0.000000,0
920.41,-7.30,-1.26,0.52,-11.77,-5.65,5.18,49.00,15.55,-36.43,3314.56,0.000000,0.000000,0
920.62,-7.35,0.97,1.08,-5.18,-0.47,-1.41,52.45,30.45,5.41,3308.90,0.000000,0.000000,0
920.83,-6.46,-0.35,0.56,-12.71,1.41,0.94,53.09,-24.09,11.43,3307.95,0.000000,0.000000,0
921.05,-4.63,2.74,-2.25,-8.47,1.41,-3.77,62.36,-17.18,-8.16,3303.50,0.000000,0.000000,0
921.26,-3.50,2.29,-2.89,-9.41,-2.35,0.00,65.00,5.73,5.00,3303.77,0.000000,0.000000,0
921.47,2.16,-4.64,-5.59,-1.41,0.47,-1.88,53.73,27.45,9.18,3302.29,0.000000,0.000000,0
921.69,1.71,2.33,0.88,0.94,-0.94,0.94,34.09,38.45,-22.45,3299.73,0.000000,0.000000,0
921.90,3.36,4.67,7.34,-7.06,-12.71,-0.94,56.91,22.55,-18.57,3294.47,0.000000,0.000000,0
922.11,6.57,-3.73,2.01,-17.89,6.12,-0.47,53.09,-18.36,18.88,3292.05,0.000000,0.000000,0
922.32,12.76,-2.78,-3.88,-12.24,-3.77,5.65,54.18,27.45,9.29,3291.78,0.000000,0.000000,0
922.54,14.04,-1.49,-0.53,-27.30,33.42,-17.89,42.82,-19.09,-36.73,3290.57,0.000000,0.000000,0
922.75,12.16,-2.63,2.18,-11.30,1.41,-1.41,53.09,-4.45,26.43,3284.78,0.000000,0.000000,0
922.96,11.54,-2.29,0.26,-3.30,-1.41,-2.82,62.00,16.09,-14.80,3283.17,0.000000,0.000000,0
923.17,12.40,-3.95,-0.63,-13.65,-2.82,-15.53,61.00,-16.18,5.51,3278.19,0.000000,0.000000,0
923.38,10.00,0.75,-1.04,62.13,112.97,-195.35,54.09,9.00,25.61,3274.56,0.000000,0.000000,0
923.60,2.93,-3.37,1.64,-9.41,-11.77,-50.37,58.18,22.18,-16.63,3273.08,0.000000,0.000000,0
923.81,3.49,0.96,0.52,-2.82,0.94,0.47,50.00,-5.09,-38.57,3274.16,0.000000,0.000000,0
924.02,2.79,0.29,-4.75,-19.77,-16.48,-7.53,65.91,-3.45,-15.41,3267.71,0.000000,0.000000,0
924.23,-2.77,-5.05,3.13,-17.42,-0.94,1.88,50.45,4.27,-38.88,3266.23,0.000000,0.000000,0
924.44,-2.42,2.28,1.32,-10.36,1.41,8.00,33.91,21.27,-41.43,3264.89,0.000000,0.000000,0
924.66,-2.30,3.12,0.99,-7.53,5.18,-3.30,59.91,22.64,-5.31,3260.32,0.000000,0.000000,0
924.87,-3.88,0.60,-2.26,-8.00,-1.41,-0.94,54.00,22.27,17.65,3258.44,0.000000,0.000000,0
925.08,-3.71,-3.24,-0.15,-10.83,1.41,-7.06,44.45,4.73,35.41,3255.09,0.000000,0.000000,0
925.29,-3.77,1.56,0.29,-14.12,-10.83,3.77,65.91,-1.91,3.37,3252.41,0.000000,0.000000,0
925.51,-5.77,-1.74,1.84,-8.94,-5.18,1.88,59.18,-21.00,-14.29,3250.93,0.000000,0.000000,0
925.72,-9.36,3.71,2.66,-4.24,-3.30,3.77,52.36,12.18,-35.00,3249.46,0.000000,0.000000,0
925.93,-11.42,5.79,2.55,-13.65,13.18,-1.41,63.00,-11.36,7.65,3247.71,0.000000,0.000000,0
926.15,-10.15,4.69,3.77,-3.30,1.41,0.00,52.91,-22.64,-24.18,3244.77,0.000000,0.000000,0
926.36,-10.60,3.30,1.56,-6.12,2.35,-1.88,62.09,2.18,-26.02,3241.28,0.000000,0.000000,0
926.57,-10.14,0.86,2.20,-12.71,-1.88,-1.41,66.36,-5.73,0.41,3237.53,0.000000,0.000000,0
926.79,-9.65,-1.52,7.16,-13.18,-4.24,3.77,53.09,-13.36,-33.57,3237.93,0.000000,0.000000,0
927.00,-7.87,0.36,4.13,-8.00,-5.65,3.30,39.55,35.55,-23.57,3235.12,0.000000,0.000000,0
927.21,-7.62,1.38,1.21,-4.71,0.94,1.41,63.09,-0.36,12.55,3231.91,0.000000,0.000000,0
927.42,-6.72,0.20,1.25,-4.71,2.82,0.94,52.00,-29.55,-7.04,3232.18,0.000000,0.000000,0
927.64,-4.97,3.46,1.95,-17.42,-1.88,-1.88,55.82,-10.91,-31.33,3227.09,0.000000,0.000000,0
927.85,-3.64,-1.20,0.27,-6.59,2.82,0.94,54.82,-6.36,-34.69,3228.16,0.000000,0.000000,0
928.06,-2.52,3.38,1.43,-8.94,-2.35,0.47,60.73,10.18,-25.31,3224.95,0.000000,0.000000,0
928.28,-0.91,1.44,0.05,-9.41,3.77,0.94,66.64,-5.91,-5.20,3220.81,0.000000,0.000000,0
928.49,-1.83,0.98,1.78,-9.41,-5.65,-2.82,64.36,-1.27,9.39,3218.54,0.000000,0.000000,0
928.70,-0.82,-0.67,1.32,-5.65,4.24,1.88,51.36,-29.55,0.41,3218.67,0.000000,0.000000,0
928.92,1.91,0.82,-2.19,-8.00,-0.47,-0.47,54.91,-23.55,7.65,3216.67,0.000000,0.000000,0
929.13,1.32,-0.46,0.73,-10.36,-1.41,0.94,59.91,-7.82,15.20,3213.33,0.000000,0.000000,0
929.34,1.94,1.16,-1.95,-12.24,-0.94,-0.94,55.73,-5.27,23.78,3210.25,0.000000,0.000000,0
929.55,1.82,-0.50,-0.80,-6.59,0.00,-1.41,49.09,16.27,28.98,3205.98,0.000000,0.000000,0
929.77,2.04,-3.14,-1.18,-16.48,-1.41,0.94,51.00,30.27,11.33,3201.98,0.000000,0.000000,0
929.98,1.06,-0.14,2.75,-6.59,-1.88,-4.71,50.36,32.09,-12.35,3198.25,0.000000,0.000000,0
930.19,-0.95,3.55,-2.24,-21.18,3.30,-8.94,65.18,11.55,0.51,3196.51,0.000000,0.000000,0
930.41,-7.67,-7.01,-4.41,4.24,-0.94,-2.35,57.36,26.27,-8.37,3197.44,0.000000,0.000000,0
930.62,-5.55,-5.56,2.53,-0.94,-2.82,-4.71,59.27,14.82,14.59,3194.38,0.000000,0.000000,0
930.83,-0.69,1.33,4.02,-6.12,-9.41,8.00,63.27,10.91,-19.59,3191.98,0.000000,0.000000,0
931.04,3.63,-0.96,2.77,-9.41,-4.71,13.18,41.18,-35.45,1.02,3189.31,0.000000,0.000000,0
931.26,4.66,-0.76,2.46,-8.47,-0.47,-1.88,30.64,-23.73,32.96,3187.72,0.000000,0.000000,0
931.47,3.75,-2.87,1.10,-8.00,0.47,-2.35,38.36,4.27,39.59,3184.79,0.000000,0.000000,0
931.68,2.74,-0.52,2.70,-9.41,0.94,0.94,65.00,10.91,2.35,3183.19,0.000000,0.000000,0
931.90,2.45,0.95,-0.09,-5.65,0.94,-0.94,62.82,-6.00,11.53,3180.39,0.000000,0.000000,0
932.11,2.33,-1.75,-1.17,-8.94,0.94,-0.94,61.36,6.55,15.61,3179.59,0.000000,0.000000,0
932.32,2.92,-0.55,-2.10,-9.41,0.00,0.47,57.36,25.73,-11.12,3174.54,0.000000,0.000000,0
932.54,1.33,1.09,1.89,-10.36,-4.24,3.30,54.36,21.82,-25.51,3172.41,0.000000,0.000000,0
932.75,1.06,1.08,-1.25,-6.59,-0.94,-3.30,63.45,14.91,-13.27,3171.34,0.000000,0.000000,0
932.96,0.50,-3.14,0.67,-14.12,-0.47,-7.06,61.45,15.91,-18.47,3168.69,0.000000,0.000000,0
933.17,0.74,-2.75,-1.20,-7.53,-0.94,3.77,28.55,13.18,-46.73,3168.29,0.000000,0.000000,0
933.39,0.50,-0.40,1.33,-2.35,-1.41,0.94,13.09,9.18,-48.27,3166.56,0.000000,0.000000,0
933.60,-6.29,4.22,8.61,-11.77,-2.82,3.30,38.09,23.18,-38.37,3163.50,0.000000,0.000000,0
933.81,-4.38,1.84,-0.61,-3.30,4.24,6.59,66.36,-2.64,-15.10,3161.24,0.000000,0.000000,0
934.03,3.37,4.66,-2.44,-10.83,-4.24,7.06,56.09,23.27,12.65,3158.32,0.000000,0.000000,0
934.24,4.98,2.27,1.10,-6.12,-8.00,-1.88,29.45,45.45,2.45,3156.06,0.000000,0.000000,0
934.45,-0.27,2.68,8.23,-16.95,-3.77,-3.77,51.64,31.73,-9.08,3154.34,0.000000,0.000000,0
934.67,5.47,2.31,-0.50,-3.77,0.47,-2.35,53.18,-9.18,25.61,3153.41,0.000000,0.000000,0
934.88,2.65,-2.21,2.38,-2.35,-1.88,-0.47,55.27,14.73,21.22,3153.01,0.000000,0.000000,0
935.09,1.05,0.65,3.82,-8.47,0.00,10.36,61.55,-11.91,10.31,3147.57,0.000000,0.000000,0
935.30,0.90,0.23,1.46,-11.77,-4.71,-1.88,44.82,-18.00,27.65,3148.63,0.000000,0.000000,0
935.52,-0.00,-2.56,3.98,-10.83,7.06,-1.41,18.45,-33.73,25.20,3145.98,0.000000,0.000000,0
935.73,1.77,-1.97,0.32,-8.47,0.00,-2.82,16.18,-28.18,32.96,3142.13,0.000000,0.000000,0
935.94,2.11,-2.43,0.60,-12.24,2.35,0.00,31.73,-20.09,35.10,3141.07,0.000000,0.000000,0
936.16,2.80,-1.34,0.73,-8.00,0.47,0.00,48.09,-5.82,31.22,3137.89,0.000000,0.000000,0
936.37,3.30,-1.08,-2.38,-10.36,3.30,-3.30,54.27,8.27,25.51,3137.22,0.000000,0.000000,0
936.58,2.18,-2.53,0.65,-13.65,-5.65,4.24,48.27,35.64,-4.80,3134.44,0.000000,0.000000,0
936.80,-0.14,1.27,4.44,-10.83,2.35,-4.24,61.82,16.09,-17.65,3129.01,0.000000,0.000000,0
937.01,0.83,-2.05,-0.49,-8.47,-0.47,-1.41,63.73,-9.73,-19.49,3127.56,0.000000,0.000000,0
937.22,1.64,-2.84,-3.70,-17.42,14.12,-1.88,53.55,-9.73,-34.29,3125.44,0.000000,0.000000,0
937.44,-1.90,-1.55,1.22,-7.53,-3.77,3.30,28.73,1.73,-48.16,3127.03,0.000000,0.000000,0
937.65,-3.84,0.54,1.42,-2.82,2.35,9.89,26.91,27.45,-39.80,3122.13,0.000000,0.000000,0
937.86,-1.41,3.22,-1.01,-16.48,-1.88,-8.00,43.09,38.64,-10.20,3119.35,0.000000,0.000000,0
938.07,-2.21,-0.78,0.64,-12.24,-5.65,-3.30,36.91,40.36,12.24,3117.63,0.000000,0.000000,0
938.29,-2.62,-0.35,1.50,-11.30,2.35,1.41,54.45,18.09,20.92,3114.86,0.000000,0.000000,0
938.50,-1.33,-0.78,-0.61,-8.47,-0.94,-6.59,56.00,5.09,23.67,3112.48,0.000000,0.000000,0
938.71,3.06,-6.91,-1.38,-11.30,5.65,10.36,65.18,10.55,-14.69,3111.68,0.000000,0.000000,0
938.93,4.27,2.53,-1.47,-2.82,-3.30,0.94,45.91,-2.82,-41.53,3109.17,0.000000,0.000000,0
939.14,5.58,2.50,0.79,-4.71,-2.82,-1.88,57.27,-18.64,11.53,3110.36,0.000000,0.000000,0
939.35,7.62,-2.98,2.31,-8.00,-0.94,-1.88,60.27,7.64,16.53,3105.47,0.000000,0.000000,0
939.57,8.86,-1.17,1.07,-9.89,1.41,-0.94,66.64,-4.00,-7.35,3102.44,0.000000,0.000000,0
939.78,11.24,-0.20,-3.34,-14.12,0.47,0.94,65.27,9.55,2.76,3099.00,0.000000,0.000000,0
939.99,12.43,-1.95,-0.66,-8.94,-0.47,0.47,50.27,-5.55,-38.78,3097.55,0.000000,0.000000,0
940.20,12.61,-2.16,-0.48,-10.83,-0.47,-7.06,48.73,-8.64,30.61,3094.39,0.000000,0.000000,0
940.42,11.97,0.11,1.96,-4.71,-1.88,-5.65,63.27,10.18,-20.00,3091.48,0.000000,0.000000,0
940.63,10.27,-1.39,0.83,-9.89,-3.77,-3.30,61.36,-9.36,12.45,3088.45,0.000000,0.000000,0
940.84,8.92,1.46,-3.44,-11.30,1.88,-4.24,58.09,14.45,16.94,3087.00,0.000000,0.000000,0
941.06,6.20,-0.54,-0.42,-4.24,-0.47,4.24,27.82,30.73,-36.94,3088.45,0.000000,0.000000,0
941.27,4.99,5.98,-4.80,-14.59,-3.30,0.94,40.36,-12.64,-41.22,3083.97,0.000000,0.000000,0
941.48,3.11,-1.28,0.28,-8.00,-3.30,-6.12,65.36,8.55,2.96,3081.33,0.000000,0.000000,0
941.69,3.55,-1.37,0.71,-3.77,1.41,1.88,64.82,-4.91,-19.08,3080.67,0.000000,0.000000,0
941.90,7.65,3.27,-10.02,-14.59,-3.30,8.47,57.18,23.91,10.10,3075.40,0.000000,0.000000,0
942.12,6.44,2.87,1.66,-3.30,-8.94,0.94,17.73,29.45,-39.69,3076.59,0.000000,0.000000,0
942.33,5.02,3.82,2.30,-12.71,-2.35,-9.89,53.45,-27.36,-13.06,3072.51,0.000000,0.000000,0
942.54,8.13,-1.59,-1.89,-6.59,4.24,-4.24,35.45,-14.55,37.45,3071.19,0.000000,0.000000,0
942.75,9.61,-1.05,1.28,-4.24,0.94,7.53,51.09,30.55,-17.35,3072.77,0.000000,0.000000,0
942.96,4.84,-0.16,-4.51,-10.83,2.82,-1.41,60.73,-5.09,-27.04,3066.98,0.000000,0.000000,0
943.18,-0.81,1.34,-0.47,-6.59,-2.35,1.41,56.64,8.18,-32.55,3063.30,0.000000,0.000000,0
943.39,-1.00,-1.28,-2.65,-8.94,6.12,-1.41,62.36,12.36,-20.92,3060.93,0.000000,0.000000,0
943.60,-1.79,1.43,-0.27,-10.36,-5.65,1.88,34.18,40.45,-19.29,3060.80,0.000000,0.000000,0
943.81,-2.62,1.58,1.16,-8.94,1.88,-2.82,41.00,39.00,8.37,3058.04,0.000000,0.000000,0
944.03,-2.93,-0.79,-1.51,-7.06,-1.41,0.00,42.73,21.73,31.53,3055.93,0.000000,0.000000,0
944.24,-2.88,-2.42,-0.05,-11.77,1.41,-6.12,47.09,2.36,33.47,3054.23,0.000000,0.000000,0
944.45,2.93,-2.30,-3.13,-8.47,5.18,-0.94,64.09,2.36,9.18,3048.71,0.000000,0.000000,0
944.66,2.48,-0.48,-0.49,-2.35,-3.30,2.82,52.82,25.45,-23.57,3052.00,0.000000,0.000000,0
944.88,-3.46,7.47,3.12,-13.65,6.12,2.82,62.82,12.82,8.06,3044.25,0.000000,0.000000,0
945.09,-4.16,0.15,-2.72,-14.12,0.94,-8.00,42.91,-10.45,34.39,3043.72,0.000000,0.000000,0
945.30,-6.78,-1.39,-0.94,-8.00,-2.35,-3.30,57.73,-22.27,4.29,3040.57,0.000000,0.000000,0
945.52,-6.08,-0.99,-1.09,-8.47,-1.41,0.00,54.18,1.45,-36.33,3038.74,0.000000,0.000000,0
945.73,-6.73,1.95,0.58,-13.18,0.94,-2.35,48.00,35.64,-1.94,3036.11,0.000000,0.000000,0
945.94,-6.56,0.59,0.59,-6.59,7.06,-4.71,40.45,-1.09,38.27,3035.06,0.000000,0.000000,0
946.16,-2.04,1.53,-6.31,-10.36,3.30,0.94,50.64,-25.55,12.14,3031.39,0.000000,0.000000,0
946.37,0.68,1.63,-2.06,-4.71,-0.94,0.94,62.09,6.36,14.29,3028.51,0.000000,0.000000,0
946.58,1.91,-0.03,1.01,-8.47,-5.18,-0.94,54.00,24.45,13.67,3028.64,0.000000,0.000000,0
946.79,-0.13,-0.98,4.06,-14.12,2.82,-1.41,64.18,-5.82,7.86,3023.79,0.000000,0.000000,0
947.01,0.78,0.92,0.89,-6.59,-0.47,0.94,57.91,-22.27,3.67,3021.83,0.000000,0.000000,0
947.22,1.12,1.39,0.48,-4.24,5.65,-3.30,44.09,-26.27,20.51,3022.22,0.000000,0.000000,0
947.43,2.17,-9.64,-3.24,-10.83,-4.71,-24.01,62.82,18.36,-5.41,3015.67,0.000000,0.000000,0
947.65,-1.89,4.57,1.20,0.00,-0.47,0.00,50.73,22.00,-30.51,3013.97,0.000000,0.000000,0
947.86,-3.13,2.07,-1.60,-15.06,-1.41,-4.71,56.45,19.82,16.12,3011.75,0.000000,0.000000,0
948.07,-4.77,-1.54,1.41,-3.77,-1.41,-0.47,50.00,0.09,30.31,3009.53,0.000000,1215.545898,0
948.28,-7.91,2.58,-0.33,-5.65,3.30,2.35,55.27,-26.00,-7.55,3007.96,0.000000,1215.545898,0
948.50,-3.86,0.65,-1.39,-26.36,32.95,123.80,61.09,-17.82,-15.82,3003.12,0.000000,1215.545898,0
948.71,-5.98,-0.24,0.27,-9.89,-1.41,-4.71,64.00,0.00,-23.98,3000.90,0.000000,0.000000,0
948.92,-4.34,4.49,-0.57,-14.59,-4.71,2.35,59.82,23.09,-0.82,2998.02,0.000000,0.000000,0
949.14,-3.21,0.88,1.07,-7.06,2.35,-2.82,39.09,-8.64,36.94,2997.11,0.000000,0.000000,0
949.35,-2.53,0.10,-0.18,-0.94,0.94,-0.94,36.64,-28.91,23.47,2996.06,0.000000,0.000000,0
949.56,4.57,-6.13,-7.22,-14.59,-1.41,-4.71,60.64,-0.55,16.94,2989.93,0.000000,1215.570922,0
949.78,-0.60,2.87,1.04,-0.94,-1.41,2.82,50.55,25.91,-27.35,2989.14,0.000000,1215.570922,0
949.99,-1.53,3.10,-1.53,-10.36,1.41,-0.47,60.00,21.09,4.80,2985.75,0.000000,1215.570922,0
950.20,0.57,0.42,2.68,-10.83,-4.24,-5.18,47.55,19.36,28.37,2984.45,0.000000,0.000000,0
950.41,0.85,-3.04,2.19,-17.42,0.94,-0.94,61.18,-0.09,15.31,2980.40,0.000000,0.000000,0
950.63,1.59,-0.77,1.68,-7.53,-0.47,-1.41,62.36,-17.36,-7.14,2979.75,0.000000,0.000000,0
950.84,2.28,-0.32,0.62,-0.94,0.47,-0.47,50.27,-29.45,3.37,2978.45,0.000000,0.000000,0
951.05,4.21,-2.96,-6.37,-7.06,6.12,-3.77,62.00,-1.36,14.69,2971.80,0.000000,0.000000,0
951.27,3.92,1.29,-0.42,-7.06,-2.82,7.53,41.64,28.73,-32.45,2971.28,0.000000,0.000000,0
951.48,2.98,1.75,0.36,-6.59,-2.82,-6.59,63.18,3.45,-24.69,2966.85,0.000000,0.000000,0
951.69,0.20,-1.82,0.50,-12.71,5.18,3.30,60.36,-8.64,-27.65,2964.25,0.000000,0.000000,0
951.91,1.97,2.07,-1.92,-7.53,-0.94,1.41,62.64,-6.82,-23.67,2961.00,0.000000,0.000000,0
952.12,0.09,-0.14,1.44,-10.83,-3.77,-3.77,67.27,2.09,-4.80,2959.04,0.000000,0.000000,0
952.33,-1.42,-0.72,3.20,-11.30,1.41,2.82,59.82,-20.45,-15.82,2956.05,0.000000,0.000000,0
952.54,-1.29,-1.18,1.15,-8.94,3.30,-3.77,39.64,-30.73,-26.12,2953.71,0.000000,0.000000,0
952.76,0.96,-1.91,-3.58,-4.71,0.94,0.94,29.09,-25.36,-36.94,2951.76,0.000000,0.000000,0
952.97,3.14,2.04,-3.46,-9.89,-2.35,0.47,47.27,-22.73,-30.71,2948.12,0.000000,0.000000,0
953.18,2.64,-1.60,-0.97,-14.12,2.82,-4.71,65.73,-7.73,-5.10,2945.65,0.000000,0.000000,0
953.40,5.04,-1.23,-4.36,-11.77,0.94,2.35,64.27,7.45,-20.71,2942.40,0.000000,0.000000,0
953.61,1.80,1.84,0.42,-5.18,-2.82,5.65,55.27,3.45,-35.41,2940.07,0.000000,0.000000,0
953.82,1.41,4.61,-3.24,-11.30,4.24,-7.53,65.82,-6.64,1.12,2938.25,0.000000,0.000000,0
954.03,-5.22,-3.00,-2.70,-4.24,2.35,-3.30,58.09,15.27,16.94,2932.41,0.000000,0.000000,0
954.25,-6.17,0.11,-1.54,-11.77,-5.65,1.88,49.91,24.09,21.22,2930.98,0.000000,0.000000,0
954.46,-6.22,0.18,1.02,-9.41,3.30,-2.35,34.00,-21.36,32.76,2929.42,0.000000,0.000000,0
954.67,-4.71,-0.48,-2.15,-4.24,1.88,-2.35,42.18,-34.09,-14.18,2924.88,0.000000,0.000000,0
954.89,-2.96,3.93,-2.18,-20.71,-4.71,-4.24,61.45,4.45,-27.65,2919.96,0.000000,0.000000,0
955.10,-2.58,0.64,-0.64,-7.53,-0.94,-1.88,61.27,18.45,6.12,2918.28,0.000000,0.000000,0
955.31,-2.61,-1.27,0.51,-6.12,-0.94,-3.77,60.27,8.45,16.53,2917.37,0.000000,0.000000,0
955.53,2.35,-6.47,-1.34,-10.83,2.82,2.35,58.45,8.00,-31.22,2914.13,0.000000,0.000000,0
955.74,7.41,0.33,-3.81,-8.47,1.41,0.94,46.82,-23.27,-30.61,2910.76,0.000000,0.000000,0
955.95,7.02,-1.84,0.41,-16.00,-1.41,-0.47,62.64,-16.91,-4.49,2905.71,0.000000,0.000000,0
956.16,6.52,-3.25,2.70,-5.18,0.47,-3.30,59.82,-18.55,5.71,2905.71,0.000000,0.000000,0
956.38,7.60,-1.66,0.31,-1.41,1.41,-4.24,53.73,-9.09,25.10,2903.39,0.000000,0.000000,0
956.59,4.67,-2.51,2.55,-9.89,-0.94,-0.94,66.82,6.45,-6.22,2898.08,0.000000,0.000000,0
956.80,5.27,0.95,0.86,-11.30,-2.82,-3.30,60.36,-17.91,5.51,2896.92,0.000000,0.000000,0
957.02,5.00,1.50,1.29,-9.89,0.94,-5.18,47.55,-2.82,32.24,2893.69,0.000000,0.000000,0
957.23,3.85,-1.60,0.44,-8.47,2.35,1.88,49.64,21.45,24.39,2891.49,0.000000,0.000000,0
957.44,5.12,-0.04,-2.78,-8.47,1.41,3.77,54.00,30.55,-7.86,2890.85,0.000000,0.000000,0
957.66,5.71,-0.07,-3.12,-6.12,-0.94,1.41,32.82,12.64,-46.02,2885.94,0.000000,0.000000,0
957.87,5.66,2.05,-2.56,-8.94,-1.41,1.88,43.82,-24.73,-31.02,2881.55,0.000000,0.000000,0
958.08,4.72,-0.98,-0.98,-19.30,-3.77,-3.30,62.27,-13.82,6.33,2878.32,0.000000,0.000000,0
958.29,4.76,-3.86,-0.39,-10.36,0.94,-1.88,66.36,-8.36,-7.86,2878.06,0.000000,0.000000,0
958.51,3.09,-0.23,-0.27,-0.94,3.77,2.82,57.55,-22.00,-17.76,2873.94,0.000000,0.000000,0
958.72,-4.19,5.60,-9.33,-15.06,-1.88,0.47,65.27,11.27,2.35,2870.20,0.000000,0.000000,0
958.93,2.66,-2.64,1.50,-3.30,-0.94,-2.35,20.45,27.64,40.10,2867.87,0.000000,0.000000,0
959.15,-1.18,1.56,6.18,2.35,29.66,-92.26,55.73,22.91,12.96,2864.01,0.000000,0.000000,0
959.36,-4.16,-0.75,-1.32,-11.30,-0.47,-0.94,57.18,-15.64,14.49,2862.08,0.000000,0.000000,0
959.57,-3.27,2.44,0.32,-11.77,-3.30,2.35,62.00,-16.64,-5.92,2858.99,0.000000,0.000000,0
959.78,-4.02,1.26,3.38,-13.18,0.00,0.94,49.18,-31.18,-7.35,2855.89,0.000000,0.000000,0
960.00,-3.46,0.51,2.63,-5.18,0.94,0.94,14.27,-20.91,-41.63,2856.28,0.000000,0.000000,0
960.21,3.65,4.21,-1.22,8.00,0.47,1.88,23.73,-9.91,-46.94,2852.29,0.000000,0.000000,0
960.42,-4.87,2.85,-4.02,-8.47,-12.71,-22.12,56.36,24.27,10.71,2850.36,0.000000,0.000000,0
960.63,-2.76,-7.27,-0.30,2.82,-2.82,0.47,66.00,9.82,-3.06,2845.47,0.000000,0.000000,0
960.84,-0.10,-0.05,-0.67,-6.59,0.00,0.47,48.73,26.18,-29.08,2843.03,0.000000,0.000000,0
961.06,0.43,2.08,-1.27,-6.12,-2.35,0.47,42.73,31.27,-28.27,2840.72,0.000000,0.000000,0
961.27,3.18,4.90,1.29,-4.71,-4.71,7.06,46.73,28.27,-28.37,2837.76,0.000000,0.000000,0
961.48,2.90,0.97,-0.67,-1.41,0.94,-2.35,62.64,15.00,7.55,2836.60,0.000000,0.000000,0
961.69,0.15,-1.21,2.61,-4.71,-5.18,-1.41,58.18,25.09,-2.76,2834.55,0.000000,0.000000,0
961.90,-0.73,-2.62,3.79,-13.65,4.71,2.35,62.09,-7.91,-25.00,2829.15,0.000000,0.000000,0
962.12,-0.81,-1.19,1.13,-6.59,-0.47,1.41,35.27,-16.36,-42.35,2828.90,0.000000,0.000000,0
962.33,-0.60,2.03,-1.18,-0.47,3.77,4.24,28.00,-12.64,-45.51,2826.71,0.000000,0.000000,0
962.54,-2.64,2.59,-1.76,-11.77,-5.18,0.94,65.27,12.73,-8.78,2823.38,0.000000,0.000000,0
962.76,-1.26,-1.72,0.81,-3.77,0.47,-0.47,66.00,3.55,-16.12,2819.27,0.000000,0.000000,0
962.97,-0.51,0.52,-2.10,-10.36,0.94,0.00,63.55,9.55,-21.53,2815.68,0.000000,0.000000,0
963.18,-2.02,-4.58,-2.28,-16.48,-7.06,3.30,40.00,34.36,-26.43,2814.14,0.000000,0.000000,0
963.40,-3.10,-2.51,0.16,-0.94,-0.94,0.00,17.27,48.27,-6.94,2812.61,0.000000,0.000000,0
963.61,-3.09,-6.04,6.42,-7.53,-7.53,-2.82,39.82,35.82,18.57,2807.87,0.000000,0.000000,0
963.82,-4.81,0.77,-0.20,-0.94,1.41,0.00,66.09,0.36,-18.27,2805.94,0.000000,0.000000,0
964.03,-3.84,-0.87,5.37,-7.06,-5.18,-3.77,66.82,3.91,-2.76,2802.10,0.000000,0.000000,0
964.25,-5.50,1.09,0.48,-7.06,6.59,3.77,43.00,-26.91,-30.00,2802.10,0.000000,0.000000,0
964.46,-3.92,1.54,0.71,-10.36,-0.47,-6.12,60.82,-0.09,-28.67,2797.49,0.000000,0.000000,0
964.67,-2.88,1.01,-1.09,-9.89,-2.35,2.35,61.09,20.36,-15.31,2794.68,0.000000,0.000000,0
964.89,-2.80,-0.93,2.40,-6.59,0.94,-1.41,66.55,7.18,-2.86,2791.61,0.000000,0.000000,0
965.10,3.07,0.56,-4.63,-8.00,2.82,1.88,64.91,14.82,-9.29,2789.56,0.000000,0.000000,0
965.31,0.23,0.60,-0.62,-5.65,0.94,-6.12,54.09,29.18,5.31,2785.73,0.000000,0.000000,0
965.52,0.57,-0.64,0.90,-13.18,-2.35,3.30,53.18,31.45,-4.59,2783.68,0.000000,0.000000,0
965.74,0.29,2.93,4.59,-16.00,3.30,-3.77,65.36,6.18,6.43,2781.38,0.000000,0.000000,0
965.95,0.18,-1.92,2.52,-3.30,0.00,-0.47,57.45,-18.91,12.55,2782.41,0.000000,0.000000,0
966.16,-3.29,-0.07,-2.88,-0.94,3.77,-0.47,54.91,-26.45,-3.37,2778.83,0.000000,0.000000,0
966.38,1.62,-0.43,-4.49,-12.24,-12.24,-0.94,63.36,17.45,-3.16,2771.81,0.000000,0.000000,0
966.59,0.71,-2.17,1.40,-11.77,8.47,0.94,57.82,24.45,-10.92,2768.87,0.000000,0.000000,0
966.80,4.90,-1.47,-1.26,-15.53,-1.88,-0.47,51.91,15.64,-34.80,2765.81,0.000000,0.000000,0
967.02,4.33,-1.22,1.49,-8.47,0.94,-0.94,29.91,-26.27,-36.43,2764.79,0.000000,0.000000,0
967.23,4.85,-2.35,-2.69,-9.89,0.47,-4.71,34.18,-37.45,3.67,2763.39,0.000000,0.000000,0
967.44,5.28,-0.53,-0.24,-6.12,0.00,1.41,49.73,-18.27,22.86,2759.18,0.000000,0.000000,0
967.65,6.55,-1.69,-2.50,-14.12,-0.94,-2.35,47.18,26.82,22.55,2757.01,0.000000,0.000000,0
967.87,5.62,0.63,2.24,-14.12,-0.94,1.41,49.09,22.82,-31.94,2755.61,0.000000,0.000000,0
968.08,5.70,0.97,-0.39,-8.94,0.94,-2.35,59.82,-16.45,-21.02,2752.68,0.000000,0.000000,0
968.29,4.66,-4.39,-0.09,-13.65,-4.71,-6.59,65.73,-9.00,-1.53,2746.31,0.000000,0.000000,0
968.51,1.88,0.19,0.49,-2.35,7.06,0.00,43.45,-33.73,-15.82,2748.09,0.000000,0.000000,0
968.72,0.84,1.26,-3.21,-6.59,0.94,4.71,50.00,-30.64,-7.45,2743.26,0.000000,0.000000,0
968.93,1.07,2.99,-2.53,-12.24,-7.06,-6.12,55.18,0.18,25.71,2743.77,0.000000,0.000000,0
969.15,0.59,-1.79,2.67,-5.65,-1.88,-4.24,39.09,5.18,38.98,2740.46,0.000000,0.000000,0
969.36,1.62,-2.80,1.53,-12.71,2.35,1.41,60.91,-13.18,10.51,2735.24,0.000000,0.000000,0
969.57,1.96,1.26,1.76,-10.36,-2.35,-0.94,57.55,-17.36,13.67,2733.46,0.000000,0.000000,0
969.78,2.49,0.58,0.50,-3.77,2.35,-1.88,37.55,-18.73,32.96,2732.45,0.000000,0.000000,0
970.00,0.24,-6.25,-3.08,-11.30,4.71,-7.06,52.18,5.73,28.06,2729.65,0.000000,0.000000,0
970.21,7.99,1.81,-0.77,-1.88,-4.71,4.24,51.09,27.09,-25.00,2728.51,0.000000,0.000000,0
970.42,10.44,-1.76,-3.67,-17.89,-5.18,-19.77,66.82,-0.45,-13.37,2723.81,0.000000,0.000000,0
970.64,5.40,-0.87,-2.47,-11.77,2.82,4.24,53.55,-23.91,-21.84,2723.68,0.000000,0.000000,0
970.85,5.13,0.21,-2.72,-4.71,-0.94,-1.88,64.55,-7.36,5.61,2719.36,0.000000,0.000000,0
971.06,4.09,0.43,-2.35,-16.95,-1.88,-1.41,60.64,22.18,-0.82,2717.46,0.000000,0.000000,0
971.28,2.74,-3.75,1.20,-5.18,-0.47,-0.94,47.36,28.18,-28.27,2717.84,0.000000,0.000000,0
971.49,3.80,0.06,-1.91,-0.94,4.24,0.94,23.73,-8.55,-47.55,2714.41,0.000000,0.000000,0
971.70,4.94,0.29,-10.23,-14.12,-5.65,4.24,59.27,-7.73,-29.59,2710.35,0.000000,0.000000,0
971.91,4.79,2.58,3.47,-0.47,-9.41,0.94,63.82,-4.18,-22.96,2709.34,0.000000,0.000000,0
972.13,5.65,1.10,-6.07,-8.94,-5.18,-10.83,45.09,2.09,35.00,2709.09,0.000000,0.000000,0
972.34,-1.25,-1.69,2.35,-7.06,-3.30,6.12,57.09,22.64,10.51,2704.77,0.000000,0.000000,0
972.55,-2.73,0.66,1.64,-8.47,2.35,-3.30,61.73,-2.91,15.20,2701.99,0.000000,0.000000,0
972.76,-0.03,-3.21,-2.55,-9.89,0.94,3.77,67.00,-4.91,-5.61,2699.07,0.000000,0.000000,0
972.98,-0.47,-0.45,-0.58,-6.12,-0.94,-2.82,63.18,13.00,-18.16,2698.44,0.000000,0.000000,0
973.19,-0.64,0.18,-0.51,-7.06,-3.77,5.65,58.27,19.27,-23.16,2697.30,0.000000,0.000000,0
973.40,-0.92,3.76,2.11,-9.89,-2.35,1.88,63.00,18.36,-9.29,2693.50,0.000000,0.000000,0
973.62,1.33,-0.25,0.10,-10.83,-0.94,-5.18,57.09,12.36,19.69,2692.36,0.000000,0.000000,0
973.83,1.51,1.01,-0.13,-11.30,-3.30,2.82,59.09,18.64,12.04,2688.69,0.000000,0.000000,0
974.04,1.06,1.58,1.08,-7.53,0.00,0.00,56.82,12.55,20.41,2686.54,0.000000,0.000000,0
974.26,0.86,0.50,1.14,-7.06,0.47,-0.94,52.82,10.27,26.53,2683.00,0.000000,0.000000,0
974.47,0.11,-1.58,5.37,-21.18,-4.71,-5.18,55.82,-3.91,23.16,2678.69,0.000000,0.000000,0
974.68,1.51,-0.60,2.14,-5.18,2.35,-0.47,42.27,-32.45,10.71,2679.83,0.000000,0.000000,0
974.89,-0.68,-1.89,-3.26,-3.30,3.77,-0.94,40.45,-30.18,17.04,2676.17,0.000000,0.000000,0
975.11,-0.35,-0.10,-4.40,-12.71,-11.30,3.30,66.64,5.73,-0.71,2672.63,0.000000,0.000000,0
975.32,1.54,0.21,3.38,-16.95,14.59,19.30,65.00,7.91,4.90,2673.14,0.000000,0.000000,0
975.53,4.86,-3.00,-1.94,-20.24,29.18,-16.00,67.00,1.27,-1.33,2671.24,0.000000,0.000000,0
975.75,5.31,-3.64,-2.60,-12.71,4.71,0.47,64.73,-0.82,-21.73,2663.66,0.000000,0.000000,0
975.96,8.48,-3.16,-0.52,-10.36,-2.82,0.47,46.18,-17.00,-37.45,2663.79,0.000000,0.000000,0
976.17,8.56,0.40,-0.69,-8.00,0.94,-4.71,17.82,-13.09,43.88,2663.03,0.000000,0.000000,0
976.39,5.84,-1.47,3.36,-8.00,-1.88,-1.41,39.73,37.18,15.31,2658.49,0.000000,0.000000,0
976.60,4.42,1.19,1.35,-8.47,-6.12,-3.77,61.36,20.55,-7.86,2658.11,0.000000,0.000000,0
976.81,4.79,1.97,2.51,-9.41,4.24,0.94,64.82,-10.45,-3.78,2654.45,0.000000,0.000000,0
977.02,4.59,-0.07,-1.31,-11.30,-0.47,1.41,56.00,7.36,23.47,2654.07,0.000000,0.000000,0
977.24,3.67,1.23,-0.17,-8.00,-1.41,-0.47,51.00,28.55,13.16,2651.93,0.000000,0.000000,0
977.45,2.70,1.56,0.18,-10.36,0.47,0.94,49.64,34.18,0.00,2648.65,0.000000,0.000000,0
977.66,2.71,0.84,-1.61,-11.30,-1.88,0.00,44.91,37.82,-7.76,2644.50,0.000000,0.000000,0
977.87,0.96,2.53,1.61,-11.30,-0.94,0.94,46.09,34.18,-19.39,2641.85,0.000000,0.000000,0
978.08,0.86,1.53,0.30,-14.12,3.30,-0.94,63.18,17.55,-4.39,2640.09,0.000000,0.000000,0
978.30,1.09,1.10,-1.20,-8.00,-0.47,-1.88,57.91,22.18,8.37,2638.96,0.000000,0.000000,0
978.51,1.03,0.24,-1.40,-2.82,-0.94,-1.41,42.36,37.55,9.69,2637.69,0.000000,0.000000,0
978.72,-2.16,-3.06,1.83,-9.41,-2.35,-2.35,47.27,35.18,4.49,2633.54,0.000000,0.000000,0
978.93,-2.86,-0.39,1.92,-9.41,-0.94,0.94,61.18,19.91,0.10,2631.53,0.000000,0.000000,0
979.14,-2.15,-0.79,-1.50,-11.77,4.71,-1.41,65.91,8.91,0.51,2628.38,0.000000,0.000000,0
979.36,-2.36,0.08,-1.58,-11.30,-6.12,0.47,52.64,30.73,3.57,2626.37,0.000000,0.000000,0
979.57,-1.64,-0.26,-1.25,-7.06,2.35,1.41,51.45,24.91,17.24,2625.87,0.000000,0.000000,0
979.78,-0.61,1.81,-0.63,-7.06,-6.59,-1.41,41.27,30.18,24.80,2623.48,0.000000,0.000000,0
979.99,3.25,-0.56,4.47,-6.59,-6.59,-4.71,31.45,30.18,32.65,2619.83,0.000000,0.000000,0
980.21,6.48,0.24,1.01,-14.59,7.06,-3.77,62.45,9.73,11.02,2616.44,0.000000,0.000000,0
980.42,8.63,0.96,-2.19,-10.83,-2.35,1.88,58.45,23.91,-14.29,2613.43,0.000000,0.000000,0
980.63,7.99,0.60,-0.64,-7.06,-7.53,0.00,60.18,1.82,-29.80,2613.18,0.000000,0.000000,0
980.85,4.85,3.29,-0.70,-9.89,8.94,-6.12,50.36,-18.27,22.24,2607.78,0.000000,0.000000,0
981.06,0.81,-3.75,3.69,-50.37,123.33,52.72,58.64,10.64,17.76,2605.27,0.000000,0.000000,0
981.27,-2.84,1.99,4.30,-7.53,10.36,-1.88,38.64,-34.55,10.00,2605.14,0.000000,0.000000,0
981.48,-2.21,1.12,-2.86,7.06,0.94,24.48,38.45,-32.91,-21.73,2601.63,0.000000,0.000000,0
981.70,-3.46,1.55,-0.94,-14.12,-1.88,-4.71,63.18,-10.36,-20.41,2600.25,0.000000,0.000000,0
981.91,-3.17,2.25,0.05,-7.06,-3.30,1.88,66.00,5.36,-15.31,2597.87,0.000000,0.000000,0
982.12,1.46,-2.93,-1.08,-7.06,-0.94,-3.77,67.00,-2.45,-2.55,2595.11,0.000000,0.000000,0
982.34,1.32,-0.46,-0.32,-10.36,2.82,8.47,59.91,-2.82,-30.51,2591.98,0.000000,0.000000,0
982.55,1.15,1.05,0.85,-10.36,-0.47,-3.30,63.45,-11.55,-18.88,2588.72,0.000000,0.000000,0
982.76,1.92,-2.96,-0.97,-13.65,0.00,-1.88,59.27,-21.18,-14.59,2586.46,0.000000,0.000000,0
982.98,1.07,-0.74,1.48,-7.53,0.47,1.41,49.91,-24.36,-26.94,2586.84,0.000000,0.000000,0
983.19,1.87,0.24,-2.20,-4.71,3.30,1.41,45.27,-32.55,-14.29,2582.96,0.000000,0.000000,0
983.40,3.20,0.52,-5.54,-16.48,-7.06,-0.94,64.73,3.73,7.86,2579.45,0.000000,0.000000,0
983.61,2.47,-1.00,1.23,-8.00,0.94,0.00,63.36,17.45,-9.18,2577.83,0.000000,0.000000,0
983.83,3.82,0.19,-2.47,-5.18,0.94,3.77,62.36,14.82,-19.90,2575.07,0.000000,0.000000,0
984.04,2.02,4.76,-4.51,-11.77,-5.65,-4.24,53.73,30.73,-9.39,2571.82,0.000000,0.000000,0
984.25,2.32,-0.19,0.75,-4.71,-0.94,-1.88,41.09,39.73,-10.61,2570.82,0.000000,0.000000,0
984.47,1.69,1.37,0.41,-7.53,1.88,-4.71,53.00,26.09,-23.78,2568.45,0.000000,0.000000,0
984.68,0.75,0.70,1.79,-10.36,-2.35,2.35,58.55,16.91,-25.92,2564.57,0.000000,0.000000,0
984.89,-0.38,1.77,3.63,-12.24,-1.88,1.88,64.73,-11.00,-12.14,2563.45,0.000000,0.000000,0
985.10,-0.17,-1.86,0.50,-8.47,0.94,-2.35,50.00,-30.64,-9.08,2561.32,0.000000,0.000000,0
985.32,-0.07,-2.70,0.08,-8.00,2.82,-1.88,39.73,-32.45,-23.16,2560.57,0.000000,0.000000,0
985.53,2.43,-2.80,-2.24,-12.71,0.00,0.94,33.45,-34.64,-22.86,2555.70,0.000000,0.000000,0
985.74,2.19,-1.37,0.17,-6.59,0.94,2.82,31.18,-38.18,-11.84,2554.83,0.000000,0.000000,0
985.96,2.53,2.30,-4.08,-11.77,-0.47,2.35,44.18,-29.91,13.16,2550.71,0.000000,0.000000,0
986.17,2.62,-1.00,-0.12,-13.65,-4.24,-8.47,41.64,0.91,37.45,2552.83,0.000000,0.000000,0
986.38,3.67,-1.12,0.72,-10.83,1.41,0.94,61.45,10.36,13.27,2544.85,0.000000,0.000000,0
986.60,3.27,-1.06,2.13,-9.41,6.59,9.41,66.27,8.18,-7.45,2541.11,0.000000,0.000000,0
986.81,2.92,0.43,-3.16,-15.06,-1.41,3.30,64.18,15.45,-4.18,2540.86,0.000000,0.000000,0
987.02,4.69,3.39,-2.48,-15.06,-1.88,3.30,53.91,30.82,-6.33,2534.38,0.000000,0.000000,0
987.23,5.87,-2.26,-0.13,-13.18,-3.30,1.88,36.73,33.36,-31.02,2536.25,0.000000,0.000000,0
987.45,5.03,0.81,-1.26,-6.59,0.47,1.41,35.82,-10.09,-45.00,2531.89,0.000000,0.000000,0
987.66,4.75,-0.33,-3.30,-11.30,-0.94,0.94,60.82,-19.73,-3.57,2528.15,0.000000,0.000000,0
987.87,3.25,0.69,-1.70,-8.47,-1.41,-1.41,64.36,4.73,9.08,2524.42,0.000000,0.000000,0
988.09,1.92,0.66,-0.24,-10.36,0.94,-3.30,61.09,13.55,12.35,2521.93,0.000000,0.000000,0
988.30,1.70,-0.10,-1.81,-9.41,-2.35,1.41,54.73,29.27,3.98,2521.55,0.000000,0.000000,0
988.51,-0.01,3.27,1.40,-12.71,0.94,-0.94,54.27,28.45,7.35,2519.07,0.000000,0.000000,0
988.72,-1.23,0.73,0.42,-11.30,-0.47,-2.35,46.82,20.00,28.88,2518.57,0.000000,0.000000,0
988.94,-1.77,-0.09,0.04,-9.89,0.94,-1.41,47.55,6.36,32.45,2517.33,0.000000,0.000000,0
989.15,-1.59,0.15,-1.22,-10.36,0.94,-1.41,48.64,-2.82,31.12,2512.97,0.000000,0.000000,0
989.36,-2.17,-0.17,-1.88,-11.77,-1.88,-1.41,51.45,-0.64,28.98,2510.24,0.000000,0.000000,0
989.58,-3.51,0.11,0.57,-10.83,0.47,0.00,53.91,-11.00,22.86,2509.12,0.000000,0.000000,0
989.79,-3.39,0.12,-1.12,-10.36,0.94,-2.35,53.27,-25.36,7.55,2507.76,0.000000,0.000000,0
990.00,-3.75,-0.76,-1.40,-10.83,0.00,-1.41,62.82,-11.73,-20.20,2504.65,0.000000,0.000000,0
990.22,-4.51,0.36,0.55,-11.77,-2.82,-0.94,62.91,10.09,-22.55,2501.79,0.000000,0.000000,0
990.43,-4.37,0.39,0.31,-8.47,0.47,1.88,65.09,12.64,-10.41,2497.32,0.000000,0.000000,0
990.64,-4.24,0.92,0.92,-8.94,-0.47,-8.94,64.27,5.91,8.37,2496.21,0.000000,0.000000,0
990.85,-4.51,-1.30,1.06,-11.77,-1.41,-0.47,64.09,-14.00,-2.24,2494.22,0.000000,0.000000,0
991.07,-4.60,-0.99,0.83,-6.59,0.94,0.94,57.55,-12.18,-30.31,2494.35,0.000000,0.000000,0
991.28,-3.69,2.17,0.77,-6.59,-0.94,2.35,57.00,10.45,-32.45,2490.25,0.000000,0.000000,0
991.49,-3.60,0.21,1.52,-8.47,3.30,-3.30,67.18,4.73,-5.10,2488.39,0.000000,0.000000,0
991.71,-3.45,-1.30,-1.21,-10.83,-5.18,3.77,66.45,3.36,-15.51,2485.42,0.000000,0.000000,0
991.92,-4.03,-1.37,0.59,-7.53,-0.94,-0.94,62.91,15.55,-15.10,2483.56,0.000000,0.000000,0
992.13,-3.97,0.82,2.59,-10.83,-2.82,-2.35,64.91,13.18,-2.04,2480.71,0.000000,0.000000,0
992.35,-2.13,-2.05,-1.57,-12.24,2.82,1.41,66.00,1.09,-18.27,2479.22,0.000000,0.000000,0
992.56,-1.85,0.24,-0.76,-7.53,-6.59,0.94,58.18,24.09,-16.53,2476.62,0.000000,1216.287475,0
992.77,-1.84,1.20,2.77,-10.83,-0.47,3.77,64.91,13.73,-3.37,2475.13,0.000000,1216.287475,0
992.98,-1.46,2.47,1.12,-14.12,1.41,-4.71,57.09,-8.82,20.31,2471.05,0.000000,1216.287475,0
993.20,-1.38,-2.47,-0.46,-7.53,1.41,-1.41,53.64,-21.55,13.78,2470.06,0.000000,0.000000,0
993.41,0.53,0.98,-4.22,-14.59,0.94,-0.94,66.18,-6.09,0.00,2466.59,0.000000,0.000000,0
993.62,-0.87,-1.04,-0.76,-8.47,-5.18,1.41,57.18,25.82,2.24,2466.22,0.000000,0.000000,0
993.84,-2.32,0.85,5.76,-7.06,0.00,5.18,61.09,14.82,10.20,2462.26,0.000000,0.000000,0
994.05,0.41,-2.05,1.89,-8.47,1.41,0.94,47.91,-27.73,13.06,2458.93,0.000000,0.000000,0
994.26,0.06,1.05,-1.49,-7.53,12.24,-1.41,33.55,-34.73,13.98,2460.66,0.000000,0.000000,0
994.47,-0.55,-0.15,-5.38,-3.77,-9.41,0.94,54.18,8.45,24.90,2455.34,0.000000,0.000000,0
994.69,-2.47,0.32,1.40,-4.71,-1.88,-6.12,37.00,-6.27,38.98,2457.94,0.000000,0.000000,0
994.90,-0.90,-7.91,2.21,-5.18,-0.94,-13.65,50.09,-24.55,14.90,2451.51,0.000000,0.000000,0
995.11,-1.36,1.58,-0.40,-5.18,4.24,6.12,39.64,-26.91,-32.24,2450.89,0.000000,0.000000,0
995.32,-6.42,2.21,-1.42,-8.94,0.47,-9.89,65.73,2.00,-18.88,2448.55,0.000000,0.000000,0
995.53,-6.73,-0.53,2.48,-10.83,-9.41,-6.12,65.00,11.09,3.57,2446.32,0.000000,0.000000,0
995.75,-3.21,-3.89,-1.05,-4.71,0.00,6.59,53.82,-2.91,-38.06,2446.08,0.000000,0.000000,0
995.96,-1.84,0.56,-1.96,-0.94,3.30,5.18,32.64,18.82,-44.80,2443.48,0.000000,0.000000,0
996.17,-2.71,7.59,0.28,-13.18,-4.24,-4.24,38.36,41.73,-8.27,2439.66,0.000000,0.000000,0
996.38,2.57,-1.20,1.08,-6.59,2.35,1.88,45.73,25.45,25.31,2439.29,0.000000,0.000000,0
996.59,4.59,1.44,0.83,-9.89,-3.77,0.00,51.45,32.91,0.20,2438.06,0.000000,0.000000,0
996.81,2.88,1.17,0.98,-8.47,-5.18,-4.24,62.18,19.73,-9.49,2434.23,0.000000,0.000000,0
997.02,0.59,-0.53,2.16,-10.36,155.34,-48.95,67.45,-0.82,-4.39,2431.89,0.000000,0.000000,0
997.23,0.27,2.43,0.53,-11.30,-0.47,-1.88,61.45,-11.91,10.71,2430.04,0.000000,0.000000,0
997.45,1.03,-0.43,2.24,-8.94,-1.41,-3.77,49.82,-17.27,23.78,2430.16,0.000000,0.000000,0
997.66,1.04,-1.15,1.65,-8.94,0.94,-0.94,42.55,-25.55,22.45,2426.34,0.000000,0.000000,0
997.87,1.62,0.20,0.62,-8.94,0.47,-0.94,37.91,-24.18,27.86,2424.00,0.000000,0.000000,0
998.08,2.05,-1.05,-0.11,-10.83,-0.94,-2.82,35.18,-12.73,37.35,2420.92,0.000000,0.000000,0
998.30,1.53,-0.32,0.78,-9.41,0.94,0.94,45.27,-1.55,34.18,2417.72,0.000000,0.000000,0
998.51,1.75,-0.49,-0.36,-11.77,-0.47,-1.41,45.18,7.73,34.49,2415.63,0.000000,0.000000,0
998.72,1.34,-0.76,0.38,-10.36,-0.94,0.94,52.27,17.55,23.47,2412.18,0.000000,0.000000,0
998.94,1.46,0.65,-0.34,-10.83,-0.47,0.00,55.55,20.45,16.73,2411.57,0.000000,0.000000,0
999.15,1.26,0.88,-0.93,-13.18,6.59,-22.12,49.09,29.27,16.22,2407.75,0.000000,0.000000,0
999.36,1.23,-0.65,0.61,-9.89,-0.47,-0.94,49.18,33.36,5.92,2406.03,0.000000,0.000000,0
999.58,3.92,1.12,-0.52,-10.36,-0.94,-0.94,52.27,32.09,-11.22,2401.98,0.000000,0.000000,0
999.79,3.04,0.83,-1.17,-11.30,0.94,-3.30,53.73,26.82,-21.43,2398.66,0.000000,0.000000,0
1000.00,3.37,-1.39,-1.35,-9.41,-0.47,0.47,43.27,19.91,-38.78,2397.55,0.000000,0.000000,0
1000.21,3.84,0.44,-1.03,-6.12,0.94,1.41,37.09,-6.36,-45.92,2394.97,0.000000,0.000000,0
1000.43,2.34,2.11,-1.66,-9.89,0.47,0.94,45.55,-19.91,-35.31,2393.25,0.000000,0.000000,0
1000.64,4.40,1.41,-2.44,-13.65,-1.41,-2.82,63.64,-10.18,6.94,2388.96,0.000000,0.000000,0
1000.85,3.92,-0.45,-0.63,-8.47,-1.88,0.00,60.36,19.18,8.67,2387.24,0.000000,0.000000,0
1001.07,1.07,3.65,1.24,-10.36,-0.47,2.82,61.82,19.27,-0.51,2384.66,0.000000,1216.429077,0
1001.28,-1.55,-0.53,0.44,-7.53,0.00,-3.77,48.00,15.73,29.69,2383.07,0.000000,1216.429077,0
1001.49,-4.33,-2.14,-1.69,-8.47,-2.35,-1.88,62.18,1.00,13.67,2380.98,0.000000,1216.429077,0
1001.71,-5.19,-1.51,-1.28,-10.83,-2.82,1.41,66.36,9.27,-8.57,2378.04,0.000000,0.000000,0
1001.92,-5.66,0.16,1.51,-7.53,-2.35,-7.06,63.82,11.00,6.02,2376.69,0.000000,0.000000,0
1002.13,-4.56,-2.75,-2.07,-8.47,0.47,1.41,65.55,4.18,-19.29,2372.52,0.000000,0.000000,0
1002.34,-4.48,-0.17,-1.88,-8.00,-1.88,-1.41,46.91,36.82,-7.65,2369.70,0.000000,0.000000,0
1002.56,-5.30,1.00,3.42,-8.94,-7.06,-0.47,37.45,27.55,31.33,2369.33,0.000000,1216.454101,0
1002.77,-2.56,-4.25,0.51,-7.06,6.12,5.18,45.45,-29.00,13.78,2370.56,0.000000,1216.454101,0
1002.98,5.93,-1.91,-3.16,-10.36,0.94,0.47,59.73,-20.27,2.24,2365.42,0.000000,1216.454101,0
1003.20,6.71,-0.49,2.36,-8.47,-2.82,0.94,67.09,-0.09,-7.65,2360.03,0.000000,0.000000,0
1003.41,7.57,-0.87,-1.04,-10.83,-1.88,-0.94,62.45,-5.27,12.65,2359.54,0.000000,0.000000,0
1003.62,8.16,0.88,-1.49,-12.24,-5.18,4.24,62.18,19.36,-1.43,2360.03,0.000000,0.000000,0
1003.84,6.74,0.63,-2.57,-12.71,-3.77,-3.30,58.18,22.00,-20.61,2352.69,0.000000,0.000000,0
1004.05,6.10,0.98,-0.52,-8.94,0.94,1.41,60.00,-1.91,-30.31,2349.63,0.000000,0.000000,0
1004.26,6.22,-0.64,-1.96,-16.00,-2.82,-2.35,66.00,-6.00,-14.59,2347.55,0.000000,0.000000,0
1004.47,5.25,-0.17,1.26,-8.94,0.00,0.94,64.09,-13.73,-10.20,2346.21,0.000000,0.000000,0
1004.69,5.41,0.94,-1.73,-6.59,0.94,-0.94,58.55,-6.09,19.29,2342.79,0.000000,0.000000,0
1004.90,3.77,-5.09,-1.65,-14.59,-1.41,1.41,51.27,33.64,-2.76,2339.00,0.000000,0.000000,0
1005.11,-2.02,1.10,-1.35,-3.30,0.00,5.65,40.36,34.36,-27.14,2338.76,0.000000,0.000000,0
1005.33,-2.14,5.01,4.45,-10.83,-2.35,2.82,48.09,36.00,-0.10,2333.99,0.000000,0.000000,0
1005.54,-1.79,0.05,-2.64,-10.83,7.06,-1.88,41.55,-5.45,36.43,2333.02,0.000000,0.000000,0
1005.75,-1.62,-0.28,-0.58,-7.06,-4.71,-0.94,45.91,0.18,34.08,2328.99,0.000000,0.000000,0
1005.96,-1.42,-1.84,0.00,-9.89,1.88,0.47,52.09,-13.00,24.29,2326.68,0.000000,0.000000,0
1006.18,-1.16,-0.76,-0.46,-12.24,4.71,0.00,62.82,-16.27,-0.41,2325.33,0.000000,0.000000,0
1006.39,-0.45,1.71,-2.59,-6.59,-4.24,4.71,65.64,11.27,-0.31,2323.75,0.000000,0.000000,0
1006.60,1.21,1.70,2.67,-1.88,-9.89,-0.47,52.91,16.64,24.80,2318.87,0.000000,0.000000,0
1006.82,3.32,0.55,0.92,-12.71,15.53,-3.77,44.55,-12.09,31.73,2321.07,0.000000,0.000000,0
1007.03,4.46,0.70,-1.12,-4.71,-3.77,0.47,41.73,22.27,31.63,2315.34,0.000000,0.000000,0
1007.24,6.83,-0.98,6.51,-8.47,-6.59,-6.59,55.18,28.55,-11.22,2312.29,0.000000,0.000000,0
1007.46,7.48,-2.52,0.72,-8.47,6.59,-9.41,36.91,-37.18,1.63,2309.00,0.000000,0.000000,0
1007.67,5.95,-4.32,0.17,-11.77,-0.47,0.94,55.82,-13.27,18.27,2307.30,0.000000,0.000000,0
1007.88,6.65,1.36,0.58,-7.06,-0.47,-1.41,63.36,-7.73,8.78,2305.60,0.000000,0.000000,0
1008.09,6.10,0.47,0.24,-7.53,-0.94,-4.24,53.82,18.09,22.04,2304.13,0.000000,0.000000,0
1008.31,5.83,-1.65,0.11,-9.41,1.41,-5.65,58.27,19.82,-23.57,2301.34,0.000000,1216.549926,0
1008.52,5.48,-1.85,1.52,2.82,-2.35,34.36,33.73,-18.18,-42.55,2298.17,0.000000,1216.549926,0
1008.73,1.69,0.81,-3.03,-9.41,0.94,-1.88,32.00,-38.64,-6.33,2295.98,0.000000,0.000000,0
1008.95,0.29,-0.55,-2.36,-16.48,-0.94,0.94,58.00,-23.73,-5.71,2292.34,0.000000,0.000000,0
1009.16,-0.44,3.45,-2.50,-16.00,-0.94,2.82,65.00,-3.27,6.73,2289.91,0.000000,0.000000,0
1009.37,-1.25,2.50,0.92,-11.77,-4.71,-6.59,31.73,3.82,43.06,2290.63,0.000000,0.000000,0
1009.59,-1.45,2.22,2.22,-3.77,-0.47,1.88,10.45,-11.36,45.92,2287.23,0.000000,0.000000,0
1009.80,-3.05,-0.66,2.81,-8.00,1.88,-26.36,-23.00,-14.82,36.94,2284.07,0.000000,0.000000,0
1010.01,0.94,-8.35,-2.07,-8.00,0.94,14.59,24.09,-22.64,35.71,2280.67,0.000000,0.000000,0
1010.22,2.22,4.09,-1.48,-11.30,-1.41,1.41,58.64,-8.64,18.16,2277.64,0.000000,0.000000,0
1010.44,1.65,-2.55,3.09,-6.59,-2.82,-4.24,36.73,7.73,40.00,2275.70,0.000000,0.000000,0
1010.65,-1.76,-5.31,-0.91,0.00,9.89,-8.00,62.18,-14.18,5.31,2273.51,0.000000,0.000000,0
1010.86,5.13,-0.36,-4.67,-9.41,-10.36,11.30,38.27,22.91,-40.61,2271.33,0.000000,0.000000,0
1011.08,2.68,2.63,-0.65,-13.18,-6.59,-17.42,62.27,4.36,-26.73,2265.03,0.000000,0.000000,0
1011.29,5.27,-2.54,-0.50,-8.47,2.82,-0.47,58.18,-11.27,-29.90,2263.45,0.000000,0.000000,0
1011.50,7.17,-0.61,-3.09,-9.89,2.82,0.47,57.00,-25.09,-7.35,2261.15,0.000000,0.000000,0
1011.71,8.73,-3.49,-2.51,-16.00,-0.94,4.71,65.18,10.73,-14.49,2259.09,0.000000,0.000000,0
1011.93,9.19,0.64,0.70,-3.30,-0.47,-2.35,52.64,-26.00,-20.92,2260.06,0.000000,0.000000,0
1012.14,4.36,-1.84,3.88,-8.47,-5.65,-6.12,45.27,-6.09,32.96,2254.60,0.000000,0.000000,0
1012.35,3.83,0.21,1.73,-10.36,5.18,-2.82,41.55,-13.64,33.06,2251.94,0.000000,0.000000,0
1012.57,3.77,-0.79,-0.53,-12.24,-2.35,-0.47,37.27,13.64,38.88,2250.97,0.000000,0.000000,0
1012.78,3.23,1.09,-0.52,-10.83,-1.88,-1.88,37.00,39.82,13.88,2247.71,0.000000,0.000000,0
1012.99,2.03,1.58,1.43,-9.41,-0.94,0.00,44.36,38.73,-2.04,2245.53,0.000000,0.000000,0
1013.20,1.38,-0.02,1.30,-10.36,-0.47,-1.41,57.64,27.09,-6.43,2242.14,0.000000,0.000000,0
1013.42,0.78,-0.13,2.07,-14.59,-0.94,0.47,65.18,12.27,-14.08,2237.67,0.000000,0.000000,0
1013.63,0.70,0.59,0.82,-9.89,1.88,0.00,66.27,-6.64,-13.37,2236.22,0.000000,0.000000,0
1013.84,0.70,0.01,-1.81,-6.12,0.94,-0.94,67.00,-3.55,-7.14,2233.92,0.000000,0.000000,0
1014.05,0.04,-2.68,-2.13,-15.53,-1.41,-2.82,64.09,15.64,-12.65,2229.57,0.000000,0.000000,0
1014.26,-0.27,-0.16,-0.43,-11.77,-18.36,47.54,45.64,29.64,-28.16,2230.06,0.000000,0.000000,0
1014.48,-0.30,2.34,1.93,-8.94,-0.94,-0.94,56.55,25.36,-17.86,2225.83,0.000000,0.000000,0
1014.69,-0.61,-1.00,2.09,-11.30,0.94,-2.35,67.55,5.18,-6.02,2222.69,0.000000,0.000000,0
1014.90,0.20,-1.41,-0.34,-6.59,1.88,0.00,63.82,-7.73,-21.94,2223.53,0.000000,0.000000,0
1015.11,0.77,-0.80,-2.28,-8.47,4.24,1.88,58.91,-3.09,-32.24,2219.07,0.000000,0.000000,0
1015.32,1.78,-0.24,-3.74,-14.12,-7.06,-0.94,50.09,21.00,-33.47,2216.53,0.000000,0.000000,0
1015.54,0.57,-0.35,-0.35,-8.47,0.00,0.94,35.82,21.18,-42.14,2214.48,0.000000,0.000000,0
1015.75,0.76,1.63,-1.78,-7.06,-0.94,0.00,43.00,20.73,-38.98,2212.68,0.000000,0.000000,0
1015.96,0.16,0.01,1.24,-8.47,-0.94,-2.35,50.36,19.09,-34.59,2210.51,0.000000,0.000000,0
1016.17,0.61,-0.36,0.12,-11.30,0.94,2.35,49.00,11.00,-40.00,2208.58,0.000000,0.000000,0
1016.39,0.72,1.40,-0.01,-10.83,-0.94,0.00,53.91,6.09,-36.94,2205.80,0.000000,0.000000,0
1016.60,1.04,0.97,-1.31,-14.12,1.88,-0.94,61.91,1.45,-27.45,2201.47,0.000000,0.000000,0
1016.81,1.14,1.44,-2.16,-8.47,-2.35,1.41,62.73,13.91,-20.20,2200.63,0.000000,0.000000,0
1017.03,2.16,2.02,2.49,-7.53,-8.94,-1.88,61.36,21.27,-3.06,2196.41,0.000000,0.000000,0
1017.24,3.05,3.00,3.92,-16.00,2.82,-8.47,58.55,-12.00,16.73,2192.44,0.000000,0.000000,0
1017.45,4.17,0.16,-1.41,-6.12,0.47,-0.47,33.64,-0.27,42.04,2191.96,0.000000,0.000000,0
1017.67,4.23,-0.30,0.53,-6.59,-7.53,-1.41,27.36,42.73,18.57,2192.08,0.000000,0.000000,0
1017.88,2.48,2.13,5.33,-13.18,1.41,-3.30,62.18,19.36,-1.73,2184.62,0.000000,0.000000,0
1018.09,4.09,-0.81,-1.69,-8.94,2.35,-1.88,65.64,7.27,3.67,2183.54,0.000000,0.000000,0
1018.30,4.48,-1.03,-1.43,-9.41,-3.30,1.41,58.36,21.27,-22.04,2182.22,0.000000,1216.716796,0
1018.52,5.03,1.60,5.19,-6.59,-1.41,-5.65,57.45,-18.64,-24.90,2178.13,0.000000,1216.716796,0
1018.73,7.52,-2.41,0.31,-7.06,-0.94,-8.00,29.00,-24.45,33.06,2177.29,0.000000,0.000000,0
1018.94,7.10,-2.82,3.86,-12.24,0.94,2.35,56.91,9.00,21.63,2174.65,0.000000,0.000000,0
1019.16,7.02,0.70,0.30,-7.06,-0.94,-4.24,64.09,4.00,9.18,2171.89,0.000000,0.000000,0
1019.37,4.68,0.86,2.61,-6.59,-3.30,-0.47,65.36,11.18,0.00,2168.28,0.000000,0.000000,0
1019.58,2.12,2.07,4.44,-12.71,6.12,-4.24,51.91,-19.00,20.10,2166.12,0.000000,0.000000,0
1019.80,3.69,-0.49,-1.06,-5.65,-0.94,-0.94,23.64,3.91,46.43,2165.16,0.000000,0.000000,0
1020.01,1.52,0.63,2.19,-5.18,-3.77,0.94,31.27,25.18,37.35,2164.08,0.000000,0.000000,0
1020.22,-0.12,-0.36,4.75,-12.71,8.00,-1.88,41.18,7.27,37.55,2159.88,0.000000,0.000000,0
1020.44,2.46,0.39,-1.47,-8.94,0.94,-0.94,42.27,10.36,36.02,2157.37,0.000000,0.000000,0
1020.65,0.88,-0.47,0.90,-9.89,-7.06,1.41,39.36,29.45,28.27,2156.17,0.000000,0.000000,0
1020.86,-0.73,-1.43,1.80,-15.06,0.94,-2.82,50.36,15.27,27.04,2152.33,0.000000,0.000000,0
1021.07,-0.50,0.03,-0.22,-9.89,0.00,-0.47,61.00,7.36,15.61,2149.10,0.000000,0.000000,0
1021.29,-1.07,-1.02,-2.11,-9.89,-0.94,-3.30,58.45,13.64,17.24,2145.86,0.000000,0.000000,0
1021.50,-1.87,-1.01,-2.04,-8.94,-0.47,0.94,52.64,28.73,10.61,2142.75,0.000000,0.000000,0
1021.71,-2.36,-0.92,1.24,-6.12,-2.82,-2.35,45.55,29.36,21.73,2141.79,0.000000,0.000000,0
1021.93,-3.36,-3.50,3.05,-16.48,-3.77,1.41,62.91,4.36,12.86,2136.16,0.000000,0.000000,0
1022.14,-3.22,0.97,-0.10,-6.12,0.94,4.24,60.91,-9.18,-27.04,2134.73,0.000000,0.000000,0
1022.35,-2.85,2.29,0.89,-8.47,0.94,-1.41,66.82,-5.36,-12.24,2131.02,0.000000,0.000000,0
1022.57,-3.53,-0.80,3.84,-13.65,-3.30,-1.88,60.55,-21.36,-9.18,2127.91,0.000000,0.000000,0
1022.78,-3.00,-1.37,0.27,-2.35,2.35,3.30,28.91,-22.09,-40.82,2128.87,0.000000,0.000000,0
1022.99,3.15,5.76,-6.99,-12.24,-0.47,3.77,50.82,-6.91,-38.47,2123.85,0.000000,0.000000,0
1023.20,3.59,-2.99,1.20,-1.88,-2.35,-2.82,59.64,22.09,-16.53,2121.10,0.000000,0.000000,0
1023.42,3.54,1.90,1.50,-3.30,1.41,1.88,43.82,-18.55,-38.27,2120.38,0.000000,0.000000,0
1023.63,1.35,2.33,-1.37,-18.36,-21.18,-30.13,55.36,-23.91,6.84,2117.52,0.000000,0.000000,0
1023.84,0.95,-1.31,0.30,-7.06,2.35,0.94,50.36,-23.00,17.24,2116.56,0.000000,0.000000,0
1024.06,-0.27,-1.65,-0.25,-14.12,-5.65,2.82,59.27,-18.82,6.22,2111.79,0.000000,0.000000,0
1024.27,-1.17,-1.48,2.34,-8.94,0.00,1.41,47.55,-32.00,-13.67,2111.55,0.000000,0.000000,0
1024.48,0.42,-0.54,-2.30,-5.65,2.35,12.24,47.36,-28.36,-23.27,2108.92,0.000000,0.000000,0
1024.69,3.14,3.31,-5.31,-17.42,-12.71,-4.24,61.27,9.27,15.10,2106.66,0.000000,0.000000,0
1024.91,3.46,-0.32,-0.34,-5.65,-0.94,0.94,48.64,34.55,7.04,2105.46,0.000000,0.000000,0
1025.12,2.09,3.82,1.32,-5.65,-0.94,-0.47,56.64,28.09,-3.37,2101.53,0.000000,0.000000,0
1025.33,0.00,0.46,-0.82,-14.12,0.94,-2.35,50.36,18.45,25.92,2100.57,0.000000,0.000000,0
1025.55,0.05,-1.33,-0.33,-8.94,-5.18,0.47,47.00,28.45,21.22,2099.86,0.000000,0.000000,0
1025.76,-1.72,-3.64,4.17,-23.54,5.65,5.18,64.09,14.09,1.02,2094.26,0.000000,0.000000,0
1025.97,-0.65,-2.79,-2.53,-3.77,0.00,0.47,57.18,4.45,-34.39,2096.40,0.000000,0.000000,0
1026.19,-0.11,3.38,0.51,-0.94,0.94,5.18,48.55,15.64,-38.16,2092.59,0.000000,0.000000,0
1026.40,-3.59,1.09,0.13,-13.18,1.88,-14.59,63.27,9.36,10.92,2087.71,0.000000,0.000000,0
1026.61,-4.73,-0.23,-0.93,-7.06,-7.06,1.41,61.45,3.00,16.43,2086.04,0.000000,0.000000,0
1026.82,-9.00,0.24,-0.35,-5.18,1.88,0.94,60.36,-19.64,-16.43,2083.66,0.000000,0.000000,0
1027.04,-7.63,2.21,2.00,-12.71,2.82,-1.88,67.64,-2.27,-7.04,2084.37,0.000000,0.000000,0
1027.25,-3.58,2.03,-0.86,-3.77,2.35,2.82,67.09,-5.09,-8.16,2080.09,0.000000,0.000000,0
1027.46,-1.87,4.21,-3.96,-17.42,-2.82,-4.24,56.27,9.09,23.67,2077.95,0.000000,0.000000,0
1027.68,-4.01,1.00,3.78,-8.00,-1.41,-1.88,23.73,-4.64,44.90,2076.40,0.000000,0.000000,0
1027.89,-1.47,-0.99,-0.61,-1.88,0.47,1.88,16.55,-33.73,25.31,2073.90,0.000000,0.000000,0
1028.10,-0.93,0.35,-4.88,-13.18,-2.35,1.88,42.09,-33.09,8.88,2070.57,0.000000,0.000000,0
1028.32,-2.03,1.11,2.42,-4.71,-2.35,0.94,57.45,-20.27,8.16,2068.55,0.000000,0.000000,0
1028.53,-1.81,-0.70,-1.66,-6.12,3.77,-0.47,42.09,-35.36,-2.55,2068.55,0.000000,0.000000,0
1028.74,-1.25,-3.34,-2.53,-13.18,-2.82,-1.88,60.45,-12.18,-26.73,2063.56,0.000000,0.000000,0
1028.95,-2.33,0.92,-0.14,-9.89,-1.41,0.94,52.64,10.27,-37.14,2062.38,0.000000,0.000000,0
1029.17,-2.28,1.49,0.92,-7.53,0.94,-3.77,63.18,15.18,-17.35,2058.93,0.000000,0.000000,0
1029.38,-2.15,-2.76,2.47,-13.65,-2.35,-3.77,67.00,4.00,-15.20,2055.02,0.000000,0.000000,0
1029.59,-1.11,-1.24,0.05,-4.71,0.94,2.35,47.00,1.18,-42.76,2055.37,0.000000,0.000000,0
1029.81,5.58,0.97,-3.87,-9.89,-0.94,3.30,50.18,-3.27,-40.00,2052.64,0.000000,0.000000,0
1030.02,10.39,-2.89,-3.64,-16.48,-5.65,-4.24,63.64,-6.64,-23.47,2048.96,0.000000,0.000000,0
1030.23,9.49,-1.09,-1.03,-4.71,3.77,-8.47,53.73,-26.64,4.59,2047.78,0.000000,0.000000,0
1030.45,10.08,1.08,1.65,-8.00,4.71,2.82,65.00,1.73,8.06,2043.75,0.000000,0.000000,0
1030.66,8.20,1.34,-0.58,-2.82,-1.88,-2.35,59.64,21.27,6.73,2041.97,0.000000,0.000000,0
1030.87,6.30,1.37,-0.24,-8.00,-2.82,-1.88,59.73,20.18,-20.82,2040.07,0.000000,0.000000,0
1031.08,1.58,2.27,0.57,-9.89,0.94,0.94,66.91,-5.64,-13.27,2038.30,0.000000,0.000000,0
1031.30,-0.71,1.06,-1.54,-8.00,1.41,-6.12,63.18,0.09,12.55,2036.88,0.000000,0.000000,0
1031.51,-4.26,-2.97,-2.39,-10.36,-0.94,-2.82,65.82,9.36,1.73,2032.14,0.000000,0.000000,0
1031.72,-6.99,1.14,-1.62,-13.18,-4.71,1.41,53.27,26.82,12.65,2030.84,0.000000,0.000000,0
1031.94,-7.50,-0.25,1.06,-5.65,-0.94,-3.77,38.64,-19.27,31.33,2028.11,0.000000,0.000000,0
1032.15,-4.37,0.22,-4.48,-8.47,4.71,-0.94,48.09,-25.45,-27.76,2025.16,0.000000,0.000000,0
1032.36,-4.22,2.37,-0.87,-9.89,0.94,-1.41,60.45,23.18,-7.96,2021.96,0.000000,0.000000,0
1032.57,-3.54,0.36,-0.01,-8.00,1.41,-5.18,53.73,14.73,23.67,2021.13,0.000000,0.000000,0
1032.79,-1.71,-4.48,-7.10,3.77,4.71,-41.42,58.00,13.55,18.47,2016.40,0.000000,0.000000,0
1033.00,-1.28,-0.53,0.66,-5.65,-0.47,-1.41,44.82,33.36,16.43,2013.68,0.000000,0.000000,0
1033.21,-0.67,-1.73,0.16,-10.83,-7.06,2.35,53.27,26.64,12.45,2011.56,0.000000,0.000000,0
1033.42,-1.78,0.98,5.22,-12.24,1.41,-2.82,61.55,-4.00,14.69,2009.90,0.000000,0.000000,0
1033.63,0.18,-1.52,0.65,-4.24,1.88,8.47,53.55,-28.00,0.41,2008.96,0.000000,0.000000,0
1033.84,-0.49,4.00,-5.76,4.71,10.36,0.00,47.64,-17.55,25.92,2006.71,0.000000,0.000000,0
1034.06,-10.18,0.81,-4.65,-4.71,-5.65,-16.00,18.91,-15.27,43.16,2005.18,0.000000,0.000000,0
1034.27,-8.91,-0.39,-5.60,-5.18,-2.35,-0.94,48.64,-5.36,-41.02,2000.45,0.000000,0.000000,0
1034.48,-5.08,-2.25,7.11,-10.36,-10.36,-3.77,60.91,20.27,4.18,1997.27,0.000000,0.000000,0
1034.69,-0.52,0.79,0.92,-3.77,4.24,-6.12,63.73,-15.55,-6.94,1998.10,0.000000,0.000000,0
1034.91,2.98,-1.99,-3.07,-11.77,0.94,3.30,67.18,-3.27,-11.33,1994.67,0.000000,0.000000,0
1035.12,2.29,-0.51,0.69,-6.12,6.12,4.24,62.82,-0.64,-27.24,1994.20,0.000000,0.000000,0
1035.33,3.59,1.80,-2.35,-10.83,-4.71,-0.94,67.00,-1.27,-15.41,1990.43,0.000000,0.000000,0
1035.55,6.70,1.07,2.07,-8.94,-3.30,-4.24,67.82,2.45,-4.29,1988.19,0.000000,0.000000,0
1035.76,7.46,0.15,1.38,-12.71,0.94,-2.35,59.55,-3.00,18.88,1983.48,0.000000,0.000000,0
1035.97,8.51,-0.21,-2.31,-10.36,-0.94,-0.47,52.36,31.82,2.55,1981.59,0.000000,0.000000,0
1036.19,7.12,1.44,-1.34,-6.12,4.24,1.88,50.36,2.82,-40.20,1979.12,0.000000,0.000000,0
1036.40,6.46,-1.19,-4.38,-16.00,-9.41,-0.94,65.00,1.45,-21.33,1977.47,0.000000,0.000000,0
1036.61,4.60,-0.47,1.14,-6.59,-0.94,1.88,56.73,-13.64,-30.31,1976.88,0.000000,0.000000,0
1036.82,4.08,3.00,-2.09,-7.53,1.41,-0.94,53.82,-26.27,5.82,1972.76,0.000000,0.000000,0
1037.04,2.78,-0.49,0.81,-7.06,-3.30,-5.18,45.91,5.73,34.08,1969.11,0.000000,0.000000,0
1037.25,2.27,0.29,1.03,-9.89,2.82,-3.30,53.36,7.55,27.35,1969.46,0.000000,0.000000,0
1037.46,1.45,-1.63,-0.54,-12.71,-2.35,2.82,57.55,18.64,14.69,1965.58,0.000000,0.000000,0
1037.68,0.83,-1.07,0.29,-6.59,3.77,-1.88,61.91,20.00,-0.31,1962.64,0.000000,0.000000,0
1037.89,2.75,-2.91,-4.17,-19.77,-1.88,-0.47,54.27,26.82,-21.22,1958.88,0.000000,0.000000,0
1038.10,1.12,-3.63,1.73,-8.47,3.30,1.41,1.82,25.00,-42.45,1961.23,0.000000,0.000000,0
1038.31,4.28,0.57,-0.90,0.94,0.47,13.65,-13.73,9.00,-42.04,1957.59,0.000000,0.000000,0
1038.53,5.51,3.72,-8.85,-6.59,-3.77,0.00,41.27,-28.00,-29.49,1953.24,0.000000,0.000000,0
1038.74,4.68,3.55,4.56,-5.65,-11.30,-6.12,61.27,-10.91,12.35,1949.95,0.000000,0.000000,0
1038.95,10.75,-1.41,0.44,-8.94,-4.24,-5.65,35.18,23.64,35.71,1950.07,0.000000,0.000000,0
1039.17,9.74,0.94,-0.41,-11.30,0.94,-3.30,58.09,13.36,-29.90,1945.14,0.000000,0.000000,0
1039.38,9.82,-1.67,-2.55,-14.12,8.00,-0.94,62.27,-16.36,-16.22,1941.74,0.000000,0.000000,0
1039.59,8.71,-2.82,-1.39,-9.89,-0.94,5.18,58.64,-2.18,-32.04,1942.79,0.000000,0.000000,0
1039.81,9.03,0.57,-0.61,-0.94,-0.47,-2.35,49.36,-29.73,6.02,1939.74,0.000000,0.000000,0
1040.02,-0.46,-7.25,3.58,-12.24,-1.88,1.88,61.82,2.73,14.80,1934.58,0.000000,0.000000,0
1040.23,-0.26,3.35,0.22,-7.53,-1.41,1.41,59.64,-13.91,-26.22,1934.46,0.000000,0.000000,0
1040.44,5.36,-2.30,-0.16,-2.82,1.41,-7.06,60.00,-22.00,-6.33,1931.30,0.000000,0.000000,0
1040.66,13.72,-4.57,4.04,-13.65,14.59,1.41,45.91,-34.09,-0.82,1928.48,0.000000,0.000000,0
1040.87,9.45,-5.27,-3.04,-8.47,2.35,2.35,60.00,19.36,8.88,1924.27,0.000000,0.000000,0
1041.08,7.28,1.67,-0.67,-2.82,4.71,0.00,51.73,-19.27,-31.53,1921.69,0.000000,0.000000,0
1041.30,4.93,0.70,-0.56,-9.41,-12.24,-0.94,66.55,-5.00,2.24,1920.87,0.000000,0.000000,0
1041.51,-0.79,4.00,5.22,-21.18,1.41,-7.06,48.09,-15.73,27.04,1917.59,0.000000,0.000000,0
1041.72,1.84,-0.77,1.80,-7.06,4.24,-3.77,5.09,-29.27,32.35,1917.24,0.000000,0.000000,0
1041.94,1.69,-4.14,-2.97,-11.77,1.88,0.94,25.27,-12.82,42.04,1913.61,0.000000,0.000000,0
1042.15,1.86,-0.09,1.64,-5.18,-1.41,1.41,53.73,6.45,26.22,1910.92,0.000000,0.000000,0
1042.36,1.61,0.47,-3.15,-12.24,2.35,-2.82,53.00,6.55,26.53,1911.16,0.000000,0.000000,0
1042.57,-1.66,0.57,0.64,-15.06,-5.65,0.00,40.09,30.55,26.84,1908.47,0.000000,0.000000,0
1042.79,-2.05,-2.91,1.38,-12.24,6.59,-2.82,57.09,-1.64,22.14,1907.42,0.000000,0.000000,0
1043.00,-1.26,-1.06,-1.83,-7.53,-4.24,1.88,66.18,7.00,1.43,1901.69,0.000000,0.000000,0
1043.21,-2.31,3.09,-0.25,-24.01,6.12,6.59,63.27,8.55,10.51,1897.72,0.000000,0.000000,0
1043.43,-2.71,3.26,-1.86,-8.94,-6.12,-10.36,12.91,13.18,48.98,1899.47,0.000000,0.000000,0
1043.64,-4.20,-2.84,1.80,-3.77,0.94,-6.59,-2.64,-22.45,39.08,1895.26,0.000000,0.000000,0
1043.85,-0.16,-3.38,-3.60,-6.59,-1.41,7.53,36.82,-35.18,10.71,1894.56,0.000000,0.000000,0
1044.07,2.89,2.46,-0.60,-11.77,-3.30,-1.41,57.73,-15.82,13.88,1890.82,0.000000,0.000000,0
1044.28,3.18,-1.75,2.81,-6.12,-0.94,-4.71,44.64,-3.55,34.90,1889.19,0.000000,0.000000,0
1044.49,5.35,-0.92,-0.74,-8.00,2.35,-0.47,55.91,-0.18,24.80,1887.21,0.000000,0.000000,0
1044.70,4.73,-1.38,1.14,-10.83,-3.30,5.65,60.45,21.55,-14.80,1884.29,0.000000,0.000000,0
1044.92,3.76,-0.28,1.90,-14.59,-0.47,-5.18,64.36,-10.27,-19.90,1881.02,0.000000,0.000000,0
1045.13,3.88,-0.58,0.78,-7.53,6.12,-1.41,48.55,-32.64,-6.12,1881.72,0.000000,0.000000,0
1045.34,3.90,-2.42,-2.16,-8.47,-0.47,-0.94,58.91,-16.36,11.84,1877.18,0.000000,0.000000,0
1045.56,2.29,1.13,4.19,-13.65,-2.82,0.00,62.64,-13.91,6.73,1876.01,0.000000,0.000000,0
1045.77,0.44,-0.68,-0.23,-8.47,3.77,-5.65,36.91,-25.73,26.94,1874.03,0.000000,0.000000,0
1045.98,0.47,-0.82,-3.75,-8.47,0.00,3.77,58.18,-13.64,15.51,1870.07,0.000000,0.000000,0
1046.20,-1.22,1.12,-1.26,-11.30,-2.82,-1.88,54.73,14.00,23.06,1870.65,0.000000,0.000000,0
1046.41,-2.68,-2.22,0.73,-9.89,-1.88,-1.88,55.73,5.55,24.39,1868.09,0.000000,0.000000,0
1046.62,-5.18,-2.34,2.66,-14.59,-2.35,-1.41,64.09,-13.73,-4.18,1865.88,0.000000,0.000000,0
1046.83,-4.88,-0.42,-2.21,-6.12,-0.47,2.82,45.18,15.18,-43.06,1864.59,0.000000,0.000000,0
1047.05,-4.08,1.72,2.98,-3.77,-13.18,-11.30,40.18,41.55,-2.76,1862.50,0.000000,0.000000,0
1047.26,-2.34,-3.98,4.86,-12.24,7.06,-3.77,63.82,-12.64,-18.16,1862.03,0.000000,0.000000,0
1047.47,3.14,2.72,-0.20,-4.24,-0.94,-1.88,59.27,-22.55,-0.31,1860.87,0.000000,0.000000,0
1047.69,6.53,-2.92,2.22,-8.47,-1.88,-10.83,55.55,-12.45,20.71,1856.91,0.000000,0.000000,0
1047.90,6.58,-0.43,2.57,-11.77,5.65,-1.41,55.55,-19.00,15.20,1854.70,0.000000,1217.212402,0
1048.11,6.61,0.64,-2.09,-7.53,-5.18,4.71,48.73,17.82,28.16,1855.17,0.000000,1217.212402,0
1048.32,6.02,2.66,-0.04,-9.41,-2.82,-2.82,38.18,41.36,-10.10,1852.96,0.000000,0.000000,0
1048.54,3.89,0.98,1.66,-10.36,8.94,-11.30,55.27,13.91,-32.55,1849.47,0.000000,0.000000,0
1048.75,6.70,-5.33,-1.41,-14.59,1.88,0.94,51.00,-13.82,-36.22,1848.42,0.000000,0.000000,0
1048.96,7.26,-1.85,-0.58,-8.47,0.47,-0.94,32.18,-39.27,-2.76,1845.98,0.000000,0.000000,0
1049.18,7.46,-1.33,-0.05,-7.53,0.94,-5.18,42.18,16.09,35.10,1843.89,0.000000,0.000000,0
1049.39,6.46,-1.52,3.41,-12.71,-0.94,-0.94,61.00,18.45,-20.31,1840.64,0.000000,0.000000,0
1049.60,6.93,0.24,0.36,-9.41,0.94,-1.88,59.36,-22.55,-11.84,1839.48,0.000000,0.000000,0
1049.82,6.05,-0.54,0.09,-7.06,-0.94,-1.88,57.18,-9.18,20.41,1837.85,0.000000,0.000000,0
1050.03,4.25,1.37,2.41,-11.30,-2.82,0.94,58.73,7.73,19.69,1835.30,0.000000,0.000000,0
1050.24,2.27,0.17,0.54,-8.00,0.94,-7.53,46.73,11.55,32.55,1835.65,0.000000,0.000000,0
1050.45,1.15,-2.91,0.22,-12.71,-1.41,-0.47,58.27,18.82,14.49,1831.70,0.000000,0.000000,0
1050.67,0.08,-3.79,-0.56,-9.41,3.30,-1.41,64.55,13.36,-16.73,1830.07,0.000000,0.000000,0
1050.88,0.51,-1.42,-1.67,-4.24,-1.88,8.94,36.09,22.18,-41.73,1831.12,0.000000,0.000000,0
1051.09,-0.38,4.31,-1.27,-8.94,-1.88,3.30,38.36,22.55,-40.31,1827.75,0.000000,0.000000,0
1051.31,0.12,0.83,-0.38,-7.06,0.94,-2.35,60.09,24.18,-3.27,1824.16,0.000000,0.000000,0
1051.52,-0.01,-1.34,-0.53,-12.24,-1.88,-0.94,53.36,32.00,-8.47,1824.51,0.000000,0.000000,0
1051.73,-1.56,0.88,1.10,-11.77,0.47,0.94,57.00,27.91,-4.90,1821.03,0.000000,0.000000,0
1051.94,-1.85,0.52,1.25,-9.41,-0.94,-2.82,60.45,16.00,12.35,1819.06,0.000000,0.000000,0
1052.16,-1.72,-2.57,0.17,-8.47,1.41,-0.94,66.64,-0.55,2.14,1815.35,0.000000,0.000000,0
1052.37,-0.88,-0.51,-2.27,-8.94,-1.41,1.41,64.18,13.36,-17.55,1815.12,0.000000,0.000000,0
1052.58,-1.08,0.86,-0.86,-8.47,-0.94,0.94,56.09,28.55,-11.12,1815.70,0.000000,0.000000,0
1052.79,-1.21,2.47,0.07,-8.94,-0.94,1.41,51.55,30.82,9.18,1812.22,0.000000,0.000000,0
1053.00,-1.51,1.45,1.99,-9.89,0.00,-2.35,42.91,18.36,33.57,1811.06,0.000000,0.000000,0
1053.22,-1.23,-0.74,0.76,-11.30,-0.47,-1.41,40.45,-1.36,38.27,1808.86,0.000000,0.000000,0
1053.43,-1.08,-0.20,0.72,-9.41,1.41,1.88,46.55,-14.73,29.59,1807.71,0.000000,0.000000,0
1053.64,-0.84,-0.66,0.54,-8.47,0.94,-3.30,43.18,-24.64,23.27,1805.28,0.000000,0.000000,0
1053.85,-0.62,-3.16,-1.61,-12.24,1.41,-0.47,55.55,-26.36,-1.63,1803.66,0.000000,0.000000,0
1054.06,2.61,-3.05,-2.06,-11.30,0.94,0.00,59.91,-22.09,-7.65,1798.91,0.000000,0.000000,0
1054.28,3.97,-0.33,-1.03,-6.59,1.88,1.88,63.82,-16.55,-8.37,1798.33,0.000000,0.000000,0
1054.49,5.23,-1.73,-4.92,-11.30,-11.30,8.47,63.64,18.82,-4.08,1795.44,0.000000,0.000000,0
1054.70,4.41,-0.44,1.63,-7.06,-0.94,2.35,51.00,7.82,-39.69,1794.86,0.000000,0.000000,0
1054.92,3.79,2.39,-2.97,-9.41,3.77,-1.41,60.18,-19.27,-18.27,1789.78,0.000000,0.000000,0
1055.13,0.47,-0.25,-1.46,-10.83,-6.12,1.41,65.09,14.82,-3.67,1789.55,0.000000,0.000000,0
1055.34,-3.19,-0.65,2.50,-8.94,-2.82,-0.47,66.18,10.18,-1.53,1785.39,0.000000,0.000000,0
1055.56,0.03,-0.35,5.17,-11.30,1.41,2.82,62.91,-18.36,-10.00,1782.50,0.000000,1217.337524,0
1055.77,-1.17,-1.92,-0.22,-6.59,5.65,0.94,24.45,-38.55,-16.94,1781.92,0.000000,0.000000,0
1055.98,2.50,-0.99,-4.48,-14.12,-1.88,0.00,38.00,-33.64,-21.02,1779.50,0.000000,0.000000,0
1056.19,2.84,-1.97,-0.51,-8.47,0.00,0.94,59.64,-21.00,-14.49,1777.77,0.000000,0.000000,0
1056.41,3.11,0.40,-1.55,-7.06,-0.47,0.47,61.27,-19.55,-2.96,1777.07,0.000000,0.000000,0
1056.62,3.09,0.72,-1.33,-10.36,-1.41,4.71,65.27,0.55,7.96,1773.50,0.000000,0.000000,0
1056.83,2.83,0.97,-0.92,-13.65,-0.94,-1.41,52.91,20.64,21.63,1769.58,0.000000,0.000000,0
1057.05,3.00,-1.87,-1.25,-10.36,0.94,-0.94,49.64,34.18,3.37,1769.35,0.000000,0.000000,0
1057.26,3.01,-0.24,-0.84,-8.47,-0.47,-0.47,37.27,34.73,-29.29,1767.85,0.000000,0.000000,0
1057.47,2.38,1.11,-0.33,-9.89,0.94,6.12,35.45,17.36,-44.29,1766.69,0.000000,0.000000,0
1057.68,1.90,2.01,-3.00,-15.53,-7.06,-2.35,56.36,8.91,-34.18,1764.74,0.000000,0.000000,0
1057.90,-2.01,1.76,2.42,-10.36,-4.24,7.06,60.64,11.91,-27.04,1761.16,0.000000,0.000000,0
1058.11,0.22,-0.23,3.19,-8.47,6.59,0.47,54.73,-27.18,-12.35,1759.78,0.000000,0.000000,0
1058.32,3.48,-1.49,-0.93,-11.77,0.00,-8.00,42.36,-24.18,21.53,1756.32,0.000000,0.000000,0
1058.54,1.94,-3.37,2.09,-8.47,2.82,1.88,52.82,-26.45,7.86,1754.25,0.000000,0.000000,0
1058.75,2.89,-0.74,0.12,-8.00,0.94,5.18,53.64,-25.27,8.57,1752.75,0.000000,0.000000,0
1058.96,2.77,0.58,-1.04,-15.53,-2.82,-1.88,48.09,-7.73,30.61,1751.60,0.000000,0.000000,0
1059.18,0.81,-0.49,2.81,-11.30,-1.41,-1.88,49.73,0.91,30.71,1748.95,0.000000,0.000000,0
1059.39,0.24,-0.02,2.06,-13.18,6.59,0.00,46.27,-16.45,27.96,1745.96,0.000000,0.000000,0
1059.60,2.11,-1.41,-1.18,-2.35,40.95,-20.71,52.27,-12.91,23.88,1743.55,0.000000,0.000000,0
1059.81,5.04,-0.84,-1.33,-13.65,1.88,-5.18,60.55,10.64,15.51,1741.36,0.000000,0.000000,0
1060.03,3.57,-1.87,0.97,-10.36,-1.41,3.30,58.73,21.64,-20.71,1742.28,0.000000,0.000000,0
1060.24,3.16,1.06,-0.20,-5.18,0.47,1.41,58.82,-1.36,-32.65,1738.60,0.000000,0.000000,0
1060.45,1.28,-0.65,-6.01,-16.00,0.00,0.47,65.91,2.00,-20.41,1736.76,0.000000,0.000000,0
1060.67,-2.48,3.64,0.56,-13.65,-2.35,-5.18,46.27,37.36,0.10,1734.35,0.000000,0.000000,0
1060.88,-1.41,0.18,-1.16,-5.65,0.94,-1.88,44.27,26.18,26.53,1734.12,0.000000,0.000000,0
1061.09,-2.24,-4.05,-0.05,-8.94,-2.82,-1.41,50.27,21.73,23.27,1731.59,0.000000,0.000000,0
1061.31,-4.36,0.90,2.58,-8.47,-3.30,2.35,64.09,4.45,10.51,1728.14,0.000000,0.000000,0
1061.52,-2.04,-0.27,-0.64,-8.94,5.18,-7.06,52.82,-29.18,-3.98,1729.06,0.000000,0.000000,0
1061.73,-0.97,-0.96,-3.64,-11.77,0.00,0.94,67.27,-2.27,-12.96,1725.16,0.000000,0.000000,0
1061.94,-2.38,1.26,-0.75,-11.30,0.47,-0.47,64.00,17.00,-9.59,1722.18,0.000000,0.000000,0
1062.16,-2.00,1.56,-1.34,-6.59,-0.94,-2.82,54.27,23.36,16.53,1720.57,0.000000,0.000000,0
1062.37,-3.20,-4.27,0.61,-8.00,-2.82,-9.89,50.45,13.18,28.78,1718.50,0.000000,0.000000,0
1062.58,-2.41,-1.81,2.12,-13.18,-19.30,-1.41,63.18,7.00,-25.51,1717.93,0.000000,0.000000,0
1062.80,-0.20,-0.79,1.49,-4.24,2.82,2.82,52.36,-11.82,-36.63,1714.60,0.000000,0.000000,0
1063.01,3.60,3.17,-0.79,-7.06,-6.12,1.41,61.73,-17.45,-17.35,1712.31,0.000000,0.000000,0
1063.22,3.08,-1.42,3.53,-8.94,-5.18,-6.12,49.82,-24.27,16.94,1710.02,0.000000,0.000000,0
1063.43,8.03,-2.82,0.91,-6.12,5.65,-0.47,46.18,-19.73,26.12,1711.62,0.000000,0.000000,0
1063.65,6.09,-4.59,-0.61,-6.12,2.35,-1.88,63.64,17.55,-0.92,1706.58,0.000000,0.000000,0
1063.86,7.12,-2.83,0.22,-12.24,7.06,-0.94,42.27,-15.09,-41.43,1705.32,0.000000,0.000000,0
1064.07,7.84,-1.41,-1.05,-7.53,0.94,0.94,33.64,-37.45,6.94,1706.46,0.000000,0.000000,0
1064.29,7.46,-1.78,-0.73,-6.59,-1.41,-3.77,44.73,14.36,33.67,1701.76,0.000000,0.000000,0
1064.50,1.65,3.62,4.13,-12.24,1.88,-0.47,61.64,20.36,0.92,1700.50,0.000000,0.000000,0
1064.71,-1.43,-1.64,-2.04,-4.71,7.06,-0.47,61.73,-12.64,10.31,1699.82,0.000000,0.000000,0
1064.92,1.74,-0.55,-3.93,-12.24,-0.47,-1.41,67.09,8.27,-8.57,1696.04,0.000000,0.000000,0
1065.14,-0.33,0.42,-0.84,-9.89,-1.41,0.47,46.36,36.55,-12.35,1694.09,0.000000,0.000000,0
1065.35,-2.43,2.67,2.20,-10.36,-2.82,-0.47,50.55,31.73,9.08,1693.41,0.000000,0.000000,0
1065.56,-1.73,-1.98,1.66,-8.94,2.82,-5.65,59.27,-1.73,20.10,1691.46,0.000000,0.000000,0
1065.78,-0.74,-2.49,-1.08,-8.00,-1.41,5.65,67.36,-0.09,-13.88,1689.86,0.000000,0.000000,0
1065.99,-0.54,-0.04,-1.74,-13.65,7.06,-1.41,63.45,7.64,-25.00,1687.46,0.000000,0.000000,0
1066.20,-0.60,1.13,-3.51,-8.94,-8.47,-3.30,54.73,24.91,-24.49,1686.88,0.000000,0.000000,0
1066.42,-0.94,-1.07,0.87,-8.94,-3.77,-1.88,33.09,43.91,-9.80,1686.66,0.000000,0.000000,0
1066.63,1.17,-1.99,4.83,8.94,2.82,17.42,53.55,30.82,-11.43,1683.80,0.000000,0.000000,0
1066.84,-1.71,3.23,-2.37,-8.47,0.94,0.47,62.73,19.55,-8.98,1682.31,0.000000,0.000000,0
1067.05,-1.70,0.32,1.61,-16.95,-1.88,-5.18,43.73,23.55,29.08,1679.11,0.000000,0.000000,0
1067.27,-2.81,2.72,3.81,-12.71,0.47,0.00,33.64,-15.55,37.65,1679.45,0.000000,0.000000,0
1067.48,-5.75,-5.19,-1.11,-4.71,1.41,-5.65,26.91,-39.73,5.41,1680.14,0.000000,0.000000,0
1067.69,-3.08,2.38,-1.10,-11.30,-4.24,-2.35,55.36,-7.09,-35.71,1675.34,0.000000,0.000000,0
1067.91,-1.77,0.63,-0.06,-5.65,-2.35,3.30,61.82,4.82,-28.37,1674.88,0.000000,0.000000,0
1068.12,-1.55,0.62,5.07,-17.42,0.94,-0.94,64.00,-11.27,-18.06,1670.31,0.000000,0.000000,0
1068.33,0.24,-0.52,-0.64,-12.71,1.41,-0.94,48.00,-29.00,-22.45,1670.31,0.000000,0.000000,0
1068.55,0.84,1.65,-0.99,-11.30,1.41,4.24,53.64,-25.91,-20.20,1668.49,0.000000,0.000000,0
1068.76,0.87,3.14,-2.56,-14.12,-8.94,-3.30,60.73,-14.73,10.41,1667.80,0.000000,0.000000,0
1068.97,0.67,3.72,-1.84,-0.47,-1.41,-2.82,37.73,4.55,40.10,1670.08,0.000000,0.000000,0
1069.18,-0.90,-1.94,4.65,0.94,-1.88,-5.18,17.18,21.45,45.51,1670.54,0.000000,0.000000,0
1069.40,-2.26,-3.07,0.44,-7.06,2.82,8.47,59.00,-17.82,9.69,1662.66,0.000000,0.000000,0
1069.61,-0.73,3.14,-3.08,-19.77,-4.24,-8.94,65.18,-8.09,4.49,1660.95,0.000000,0.000000,0
1069.82,-4.01,-2.48,-4.67,-11.77,-7.06,-0.47,62.27,21.18,-4.49,1660.16,0.000000,0.000000,0
1070.03,-4.38,-0.79,-1.47,-2.35,-1.41,-1.88,46.18,33.00,14.69,1658.33,0.000000,0.000000,0
1070.24,-3.07,-3.19,-0.82,-4.71,-2.35,-7.06,42.36,19.45,32.96,1655.82,0.000000,0.000000,0
1070.46,-4.23,-1.52,0.87,-7.06,-4.24,8.47,64.55,14.00,-0.61,1653.65,0.000000,0.000000,0
1070.67,-6.88,-1.02,2.61,-3.77,3.30,-1.41,64.36,-13.55,0.41,1652.17,0.000000,0.000000,0
1070.88,-3.54,1.80,-1.39,-13.18,-2.35,-0.94,65.36,-4.45,-19.80,1651.26,0.000000,0.000000,0
1071.09,-3.80,-0.31,1.95,-9.41,-0.47,-1.41,68.09,-2.45,-7.14,1648.64,0.000000,1217.595947,0
1071.30,-1.80,0.73,-0.57,-9.89,-0.94,3.30,65.18,-6.45,-20.71,1646.70,0.000000,0.000000,0
1071.52,-1.05,1.07,-0.28,-9.89,-1.41,-2.82,67.73,2.36,-8.47,1646.82,0.000000,0.000000,0
1071.73,-0.74,-0.60,-0.10,-6.59,0.94,-0.94,67.55,0.09,-3.88,1644.54,0.000000,0.000000,0
1071.94,-1.98,0.45,-3.22,-9.41,0.00,-8.47,66.73,8.64,-5.41,1642.37,0.000000,0.000000,0
1072.15,-3.27,0.17,-1.57,-10.83,-6.59,-1.41,41.36,35.64,17.24,1642.72,0.000000,0.000000,0
1072.37,-3.85,-1.80,1.63,-9.41,2.35,-7.53,48.00,5.45,32.55,1640.44,0.000000,0.000000,0
1072.58,-1.78,-2.68,-3.82,-14.12,-0.94,1.41,67.00,4.82,0.41,1636.91,0.000000,0.000000,0
1072.79,0.02,0.56,3.11,-11.77,4.71,-2.35,65.82,12.18,-4.49,1635.89,0.000000,0.000000,0
1073.01,0.17,1.19,-3.19,-10.83,0.47,-4.71,65.36,9.27,4.90,1633.50,0.000000,0.000000,0
1073.22,-1.49,-0.42,1.74,-9.89,-6.12,-2.35,53.64,28.82,9.29,1630.88,0.000000,0.000000,0
1073.43,-4.35,-0.55,0.95,-5.18,-11.77,21.65,64.27,5.27,9.80,1630.54,0.000000,0.000000,0
1073.65,-3.76,3.62,-0.43,-16.48,1.41,-4.71,59.73,-7.00,17.65,1627.93,0.000000,0.000000,0
1073.86,-3.98,1.26,0.74,-7.53,-1.41,-2.35,41.82,-26.09,23.06,1628.15,0.000000,0.000000,0
1074.07,0.47,-1.82,-2.99,-0.94,1.88,-1.88,33.36,-38.73,-8.27,1625.08,0.000000,0.000000,0
1074.28,2.91,-2.34,-4.79,-12.24,-12.71,12.24,65.00,-4.64,-22.35,1623.49,0.000000,0.000000,0
1074.50,3.59,1.95,-1.04,-6.59,2.35,0.94,66.18,-10.91,-11.02,1623.26,0.000000,0.000000,0
1074.71,3.12,3.84,-1.76,-13.65,-5.65,10.36,54.27,14.27,24.08,1619.06,0.000000,0.000000,0
1074.92,2.22,1.85,0.19,-6.59,-0.47,-2.35,29.36,30.55,34.80,1617.47,0.000000,0.000000,0
1075.14,1.36,-0.55,2.58,-12.24,-1.88,-3.77,34.55,37.27,22.76,1616.10,0.000000,0.000000,0
1075.35,0.40,0.28,3.08,-13.65,0.94,1.41,60.91,17.27,9.29,1615.31,0.000000,0.000000,0
1075.56,0.33,-0.77,2.83,-8.00,1.41,0.47,63.73,-8.64,9.39,1617.13,0.000000,0.000000,0
1075.78,-0.69,-2.34,-1.48,-2.82,6.12,-2.82,60.27,-20.82,0.31,1613.72,0.000000,0.000000,0
1075.99,-0.22,-1.08,-5.90,-9.89,-8.00,8.47,58.09,17.82,-27.24,1611.22,0.000000,0.000000,0
1076.20,2.65,0.20,1.13,-10.36,3.77,-6.59,43.82,26.73,-33.57,1610.88,0.000000,0.000000,0
1076.41,9.99,-3.96,-2.23,-9.89,3.30,5.65,24.91,-7.09,-48.78,1610.32,0.000000,0.000000,0
1076.63,11.76,-0.04,0.17,-9.41,-0.47,-0.94,13.91,6.64,49.08,1606.57,0.000000,0.000000,0
1076.84,11.64,1.89,-0.00,-8.00,-2.35,0.47,22.18,31.09,-39.59,1607.48,0.000000,0.000000,0
1077.05,11.63,-2.76,-0.61,-12.71,1.41,-0.94,37.64,-37.64,-2.96,1604.87,0.000000,0.000000,0
1077.27,11.68,-0.11,1.84,-8.94,-3.77,-2.82,44.73,25.91,26.22,1602.15,0.000000,0.000000,0
1077.48,10.45,1.22,-0.06,-11.77,-4.71,-3.77,59.82,10.36,-29.49,1601.47,0.000000,0.000000,0
1077.69,9.40,-0.48,-0.87,-13.18,-1.88,-1.41,65.91,-11.27,-3.27,1597.84,0.000000,0.000000,0
1077.90,7.64,-1.00,0.41,-10.36,-0.47,-2.35,65.64,5.00,5.31,1595.57,0.000000,0.000000,0
1078.12,6.49,-0.88,0.69,-9.41,0.47,-0.47,67.91,-0.64,-10.41,1591.94,0.000000,0.000000,0
1078.33,5.06,-0.61,0.44,-10.83,0.94,0.00,65.00,-13.73,-5.20,1589.45,0.000000,0.000000,0
1078.54,3.65,-0.07,-0.29,-10.83,-0.94,-1.88,63.82,-10.45,7.96,1587.75,0.000000,0.000000,0
1078.76,1.56,-2.26,-0.13,-11.30,0.94,2.82,67.91,-0.82,-4.80,1586.96,0.000000,0.000000,0
1078.97,0.31,1.48,-1.02,-9.89,0.47,-1.41,68.00,4.18,-3.57,1584.47,0.000000,0.000000,0
1079.18,-1.37,-2.07,-1.40,-9.41,0.47,-1.41,65.64,12.55,-3.06,1583.68,0.000000,0.000000,0
1079.40,-1.90,1.77,-2.26,-8.47,-3.30,0.00,52.82,32.73,-1.53,1582.77,0.000000,0.000000,0
1079.61,-2.98,0.51,0.65,-12.71,-1.41,-0.94,43.36,27.64,26.53,1580.51,0.000000,0.000000,0
1079.82,-3.11,0.49,-0.35,-7.06,3.30,0.94,43.73,3.36,36.43,1580.05,0.000000,0.000000,0
1080.03,-3.71,-1.31,0.39,-9.41,0.94,0.47,43.73,-23.55,25.00,1576.55,0.000000,0.000000,0
1080.25,-3.87,-0.53,-0.32,-12.24,-0.94,0.47,49.45,-31.73,-8.67,1573.72,0.000000,0.000000,0
1080.46,-3.58,-1.34,-1.93,-10.83,7.53,-2.35,45.18,-14.82,-39.69,1573.72,0.000000,0.000000,0
1080.67,-3.58,0.54,-1.36,-10.36,0.00,-1.41,35.36,24.73,-40.71,1572.13,0.000000,0.000000,0
1080.89,-4.00,0.63,1.10,-10.36,-3.77,-0.94,32.82,44.82,4.08,1569.08,0.000000,0.000000,0
1081.10,-3.67,-2.81,1.68,-13.18,-0.47,-2.35,53.18,18.64,21.33,1564.34,0.000000,0.000000,0
1081.31,-2.95,-1.44,-0.19,-11.77,-1.88,1.41,66.91,7.36,-0.71,1564.56,0.000000,0.000000,0
1081.53,-2.17,0.37,-0.20,-6.12,-2.35,5.65,66.82,9.00,-6.53,1564.00,0.000000,0.000000,0
1081.74,-0.38,4.61,3.32,-15.53,-1.41,-5.18,55.36,-3.27,25.00,1561.29,0.000000,0.000000,0
1081.95,3.28,-0.78,-0.72,-7.06,0.94,0.47,31.64,-6.82,42.04,1560.16,0.000000,0.000000,0
1082.16,3.33,-1.43,1.40,-8.94,-0.47,-0.94,47.09,19.00,29.69,1557.78,0.000000,0.000000,0
1082.38,3.26,-2.40,2.90,-11.30,0.47,-1.41,63.09,17.82,0.00,1556.20,0.000000,0.000000,0
1082.59,4.89,-0.44,0.10,-2.82,4.24,-3.77,65.73,-10.64,-15.00,1554.85,0.000000,0.000000,0
1082.80,4.20,-3.86,-3.12,-11.30,0.94,0.94,66.00,-6.45,-18.88,1552.14,0.000000,0.000000,0
1083.02,1.34,-1.30,-0.40,-9.41,-0.47,-3.30,54.55,-6.27,-36.94,1550.56,0.000000,0.000000,0
1083.23,1.90,0.38,-0.19,-6.12,0.94,2.82,45.00,-17.00,-38.67,1549.09,0.000000,0.000000,0
1083.44,2.49,3.42,-2.53,-12.24,1.88,1.88,58.64,-22.91,-13.16,1547.29,0.000000,0.000000,0
1083.65,0.46,-0.47,-1.88,-8.94,-3.30,-3.30,63.00,6.36,13.06,1546.84,0.000000,0.000000,0
1083.87,-1.32,0.92,1.18,-6.12,-4.24,-2.82,64.91,10.18,5.41,1546.27,0.000000,0.000000,0
1084.08,-7.55,-2.23,-0.03,-17.89,4.71,9.41,62.45,-18.09,-1.02,1541.99,0.000000,0.000000,0
1084.29,-3.48,-0.14,0.71,-8.00,0.94,12.71,61.82,0.64,-29.29,1540.86,0.000000,0.000000,0
1084.51,-0.62,2.72,-0.26,-11.30,-0.94,0.47,63.18,8.82,-24.39,1537.26,0.000000,0.000000,0
1084.72,2.02,2.09,2.52,-9.89,-0.94,-1.41,66.73,3.18,3.27,1537.37,0.000000,0.000000,0
1084.93,1.20,0.09,0.02,-0.94,0.47,-8.47,51.27,-4.27,29.18,1536.35,0.000000,0.000000,0
1085.15,-0.90,-8.78,-0.93,1.41,162.40,83.32,66.55,-6.73,0.20,1532.41,0.000000,0.000000,0
1085.36,5.82,3.03,-0.78,-1.88,-4.24,0.94,45.73,-21.45,-34.90,1532.52,0.000000,0.000000,0
1085.57,6.50,-4.35,-3.16,-21.65,-6.12,20.71,65.18,-0.36,8.16,1529.93,0.000000,0.000000,0
1085.78,2.83,1.31,-1.49,-9.41,-8.00,-1.41,60.00,24.36,-1.43,1529.03,0.000000,0.000000,0
1086.00,2.03,0.52,1.81,-5.65,-1.41,8.47,62.73,18.36,-14.29,1528.24,0.000000,0.000000,0
1086.21,3.50,2.05,-1.66,-10.36,1.41,-18.83,63.64,3.00,12.45,1523.40,0.000000,0.000000,0
1086.42,-0.77,-0.49,-0.95,-8.94,-7.53,2.82,52.64,32.36,-3.88,1522.84,0.000000,0.000000,0
1086.64,-0.60,1.12,3.56,-41.89,-19.77,-1.41,58.36,20.45,12.76,1519.80,0.000000,0.000000,0
1086.85,4.49,1.87,2.58,-13.18,7.53,0.94,60.55,-3.55,17.76,1517.89,0.000000,0.000000,0
1087.06,5.83,0.77,-0.61,-8.47,-5.18,-10.36,34.45,24.09,36.33,1518.45,0.000000,0.000000,0
1087.28,-2.36,-5.64,2.88,-9.41,-0.47,2.35,46.00,33.27,15.00,1513.84,0.000000,0.000000,0
1087.49,-3.25,2.85,1.24,-6.59,-1.88,0.94,58.09,17.27,16.22,1511.37,0.000000,0.000000,0
1087.70,-0.56,0.19,0.82,-4.71,3.30,19.30,44.09,-16.36,30.10,1511.48,0.000000,0.000000,0
1087.91,2.33,-0.45,-0.96,-8.00,3.77,-7.53,42.00,-0.18,36.73,1510.47,0.000000,0.000000,0
1088.12,-1.35,-1.84,-1.18,-12.24,-3.30,3.77,54.27,10.18,25.41,1506.88,0.000000,0.000000,0
1088.33,-4.31,-2.26,-0.32,-12.71,-0.94,1.41,66.18,-0.55,5.00,1505.08,0.000000,0.000000,0
1088.55,-2.08,1.47,0.78,-9.89,-2.82,1.88,67.82,0.73,-1.73,1503.39,0.000000,0.000000,0
1088.76,-2.14,0.73,2.60,-14.12,0.00,-2.82,55.82,-22.09,11.73,1499.35,0.000000,0.000000,0
1088.97,-0.00,-0.87,0.98,-5.65,0.47,0.00,40.55,-36.64,-2.86,1498.90,0.000000,0.000000,0
1089.18,3.18,-1.19,-3.46,-9.89,3.77,-0.47,45.18,-30.73,11.63,1496.43,0.000000,0.000000,0
1089.39,5.60,-0.88,0.04,-10.36,-1.88,3.77,66.45,3.55,3.47,1494.86,0.000000,0.000000,0
1089.61,3.03,-0.81,-0.76,-9.41,3.30,1.41,67.91,3.00,-2.96,1493.74,0.000000,0.000000,0
1089.82,-2.70,1.13,-6.29,-18.83,-4.71,-9.41,55.00,30.73,-8.47,1489.70,0.000000,0.000000,0
1090.03,-1.63,0.82,-1.57,-7.06,-1.88,-10.36,-4.00,44.18,27.65,1493.74,0.000000,0.000000,0
1090.25,-1.16,-2.24,2.97,-8.00,-4.71,-4.24,11.73,36.82,36.02,1488.02,0.000000,0.000000,0
1090.46,1.97,-0.51,1.73,-8.00,2.82,0.94,56.18,16.45,19.80,1486.11,0.000000,0.000000,0
1090.67,4.42,-1.70,2.64,-13.18,-2.35,-1.41,63.55,16.09,1.43,1485.11,0.000000,0.000000,0
1090.88,5.54,0.88,1.62,-13.18,-0.47,-8.00,65.64,-10.55,1.33,1483.42,0.000000,0.000000,0
1091.10,7.01,1.46,-0.93,-8.47,-5.65,-1.88,52.91,5.00,28.06,1483.53,0.000000,0.000000,0
1091.31,10.32,1.86,0.55,-4.71,-7.06,1.41,47.36,36.64,-6.53,1479.61,0.000000,0.000000,0
1091.52,7.69,2.04,-2.02,-10.83,-3.77,-6.12,66.36,4.00,-19.39,1476.93,0.000000,0.000000,0
1091.74,6.92,-0.38,1.20,-10.83,-1.88,1.41,66.55,-3.00,-16.22,1474.46,0.000000,0.000000,0
1091.95,6.92,0.57,-0.99,-10.83,-3.30,0.47,64.27,-9.09,7.76,1472.78,0.000000,0.000000,0
1092.16,5.54,1.05,-2.11,-12.24,-2.82,0.47,56.00,21.45,16.73,1472.11,0.000000,0.000000,0
1092.38,3.72,1.62,0.42,-7.53,-1.88,-1.88,46.82,36.36,-12.65,1469.76,0.000000,0.000000,0
1092.59,1.46,0.28,2.33,-13.65,-0.94,0.00,59.27,20.45,-21.43,1467.86,0.000000,0.000000,0
1092.80,0.91,1.50,1.03,-11.30,0.00,-1.88,67.36,0.27,-12.35,1468.08,0.000000,0.000000,0
1093.01,1.07,-2.23,-0.99,-8.94,3.77,-2.35,68.09,-3.64,-12.86,1466.51,0.000000,0.000000,0
1093.23,-1.07,-2.88,-3.71,-16.00,-1.88,-0.94,49.00,20.55,-36.02,1463.83,0.000000,0.000000,0
1093.44,-1.34,0.01,-1.04,-9.41,-1.41,-3.30,20.27,41.00,-28.06,1463.27,0.000000,0.000000,0
1093.65,1.10,3.78,0.20,-8.00,-3.30,-0.94,22.27,43.18,-23.78,1460.92,0.000000,0.000000,0
1093.87,-0.61,1.63,4.85,-11.30,1.88,-13.65,58.18,26.27,-10.20,1457.01,0.000000,0.000000,0
1094.08,2.34,-0.27,-0.21,-11.30,2.35,-5.18,67.82,-2.64,-7.55,1458.57,1217.979248,0.000000,0
1094.29,0.72,-2.09,0.50,-9.89,4.71,0.00,65.09,-5.18,-22.35,1456.00,0.000000,0.000000,0
1094.51,1.60,-3.20,-2.95,-10.36,0.00,0.47,46.73,-2.73,-43.16,1454.55,0.000000,0.000000,0
1094.72,0.19,-0.15,-1.60,-3.30,-0.47,1.88,28.64,2.27,-49.49,1452.53,0.000000,0.000000,0
1094.93,2.73,3.00,-1.62,-11.77,-0.94,0.47,51.45,-7.73,-38.67,1449.85,0.000000,0.000000,0
1095.14,4.32,0.92,-4.02,-15.53,-2.35,2.35,68.09,-1.36,-13.37,1448.29,0.000000,0.000000,0
1095.36,5.28,1.43,-3.48,-8.00,-1.88,1.88,60.36,22.55,-14.59,1450.19,0.000000,0.000000,0
1095.57,2.97,3.19,-3.40,-8.00,-2.82,-0.47,49.18,33.27,-18.98,1447.06,0.000000,0.000000,0
1095.78,2.10,1.20,-0.74,-13.18,-2.82,-0.47,37.18,37.45,-24.59,1445.61,0.000000,0.000000,0
1096.00,2.58,0.87,-2.10,-12.71,-0.47,2.82,37.09,31.00,-34.29,1444.27,0.000000,0.000000,0
1096.21,1.41,-0.23,-0.60,-10.36,-1.41,-0.47,38.45,20.64,-41.94,1443.49,0.000000,0.000000,0
1096.42,1.97,1.20,-1.03,-11.30,0.94,2.35,35.82,10.64,-47.14,1441.70,0.000000,0.000000,0
1096.64,2.53,0.59,-2.29,-12.24,-2.35,0.94,53.73,-0.18,-38.47,1438.24,0.000000,0.000000,0
1096.85,2.30,1.96,0.26,-8.94,-2.82,1.88,59.91,-9.00,-29.69,1435.90,0.000000,0.000000,0
1097.06,2.10,2.41,1.37,-16.95,-0.94,-7.06,58.45,-22.09,5.10,1434.00,0.000000,0.000000,0
1097.27,3.60,0.57,-1.81,-10.36,-2.35,0.47,51.36,-10.64,27.24,1434.56,0.000000,0.000000,0
1097.49,1.61,0.24,2.14,-7.53,-3.30,-4.71,47.91,10.45,31.94,1434.56,0.000000,0.000000,0
1097.70,1.21,-2.26,3.13,-6.12,3.77,-0.94,51.36,-22.36,17.04,1433.00,0.000000,0.000000,0
1097.91,5.33,-0.36,-2.99,-14.12,-1.41,-3.77,55.55,-8.27,23.67,1431.10,0.000000,0.000000,0
1098.13,4.39,-0.18,-1.55,-10.83,7.53,-4.24,60.36,20.82,6.43,1428.87,0.000000,0.000000,0
1098.34,4.44,-1.77,-1.06,-6.12,0.00,1.41,45.55,31.82,-26.43,1429.99,0.000000,0.000000,0
1098.55,6.91,1.43,-5.74,-3.77,6.59,4.71,37.36,-6.64,-46.43,1427.09,0.000000,1218.054077,0
1098.77,1.21,0.64,-1.24,-14.59,-12.71,-5.18,65.00,6.18,-22.55,1424.08,0.000000,0.000000,0
1098.98,6.16,-2.05,-1.68,-9.41,3.77,4.24,62.64,-2.18,-28.06,1424.86,0.000000,0.000000,0
1099.19,10.66,-3.64,-1.74,-8.94,-0.94,-3.77,64.36,-13.55,-17.35,1422.30,0.000000,0.000000,0
1099.40,9.78,-4.48,2.91,-13.65,0.94,-4.71,55.73,-26.55,-1.94,1419.96,0.000000,0.000000,0
1099.62,9.99,-1.51,1.48,-6.59,0.00,-5.18,44.27,-0.82,36.02,1419.74,0.000000,0.000000,0
1099.83,8.70,2.77,1.24,-8.00,-0.94,-4.71,59.64,23.55,0.41,1419.07,0.000000,0.000000,0
1100.04,2.87,0.60,1.04,-16.00,-2.35,10.36,63.91,16.82,-10.51,1417.84,1218.079101,0.000000,0
1100.26,-0.05,2.12,0.04,-10.83,-0.94,-0.94,67.00,8.45,-1.73,1416.62,1218.079101,0.000000,0
1100.47,-1.93,1.63,0.95,-9.41,5.65,-1.88,61.36,0.82,16.53,1416.73,1218.079101,0.000000,0
1100.68,-2.03,-0.18,0.61,-6.59,8.00,-16.48,54.27,-15.09,21.33,1418.29,0.000000,0.000000,0
1100.90,0.04,-1.69,-0.43,-9.89,1.88,0.47,54.45,-26.18,5.92,1411.94,0.000000,0.000000,0
1101.11,4.78,-1.18,-0.52,-10.36,0.47,-0.94,60.73,-19.55,3.98,1410.61,0.000000,0.000000,0
1101.32,1.35,-2.26,0.40,-11.30,-0.94,-2.82,65.82,-12.64,-3.78,1409.16,0.000000,0.000000,0
1101.53,2.34,-0.47,1.43,-12.24,-3.77,-0.94,60.27,-20.55,-16.53,1408.38,0.000000,0.000000,0
1101.75,1.93,1.59,2.31,-7.53,1.88,1.88,40.09,-34.73,9.49,1405.38,0.000000,0.000000,0
1101.96,-0.51,0.68,0.06,-11.30,1.88,-0.47,17.73,-37.27,18.57,1406.83,0.000000,0.000000,0
1102.17,-1.84,-0.33,-2.20,-8.47,0.47,-0.94,21.00,-38.64,13.16,1404.04,0.000000,0.000000,0
1102.39,-3.03,-0.00,-0.91,-9.89,0.47,-0.47,48.64,-31.00,-16.43,1401.60,0.000000,0.000000,0
1102.60,-3.87,0.25,0.58,-9.89,-0.94,-0.47,52.73,-15.36,-34.18,1401.26,0.000000,0.000000,0
1102.81,-4.86,-0.21,1.94,-12.24,-1.88,0.47,51.91,6.18,-39.18,1398.82,0.000000,0.000000,0
1103.03,-4.91,-1.51,0.29,-8.94,1.41,0.94,50.55,25.09,-29.59,1396.93,0.000000,0.000000,0
1103.24,-4.49,1.30,0.73,-21.18,8.00,13.18,42.18,35.91,15.61,1397.26,0.000000,0.000000,0
1103.45,-5.26,0.20,2.31,-12.24,-0.47,1.88,45.27,-4.73,34.80,1397.04,0.000000,0.000000,0
1103.66,-2.99,0.50,-0.81,-4.71,4.24,0.00,42.73,-33.91,7.55,1395.93,0.000000,0.000000,0
1103.88,-0.31,3.21,-7.55,-21.65,-10.83,-1.88,63.64,-7.45,10.00,1390.60,0.000000,0.000000,0
1104.09,-3.00,-0.88,2.05,-8.94,1.41,-2.82,55.55,3.64,25.41,1391.15,0.000000,0.000000,0
1104.30,-1.67,-0.52,-2.83,-64.02,100.26,46.60,65.36,-4.64,6.63,1389.15,0.000000,0.000000,0
1104.52,-1.77,0.09,0.14,-11.30,-3.30,-1.41,63.64,14.91,4.29,1388.04,0.000000,0.000000,0
1104.73,-3.80,-0.98,0.88,-10.83,0.94,-4.71,67.00,-1.82,2.24,1387.05,0.000000,0.000000,0
1104.94,-0.02,-0.61,-1.45,-10.83,1.88,-0.47,67.64,-0.82,-11.73,1387.05,0.000000,0.000000,0
1105.15,3.32,-0.30,-2.49,-10.83,0.00,0.94,65.09,13.18,-16.84,1381.83,0.000000,0.000000,0
1105.37,4.13,0.11,-2.26,-14.59,-2.82,-0.94,54.64,20.82,-29.49,1381.94,0.000000,0.000000,0
1105.58,3.22,0.39,0.47,-9.41,-1.41,0.94,49.36,-5.00,-41.12,1382.27,0.000000,0.000000,0
1105.79,2.02,1.66,0.09,-13.18,1.88,6.59,55.36,-22.64,-23.47,1377.95,0.000000,0.000000,0
1106.00,3.47,-0.53,-0.05,-6.59,3.77,12.24,52.09,-29.91,-10.41,1377.28,0.000000,0.000000,0
1106.22,1.96,1.52,-1.08,-9.89,-1.41,0.94,54.09,-20.64,16.73,1375.28,0.000000,0.000000,0
1106.43,3.63,1.81,-0.91,-12.24,-0.94,-2.35,36.91,-4.91,39.80,1373.40,0.000000,0.000000,0
1106.64,3.13,-0.71,-0.03,-10.36,-1.88,-1.88,28.91,30.82,35.00,1373.18,0.000000,0.000000,0
1106.85,0.49,-0.03,0.76,-9.89,-1.41,-0.94,37.64,39.55,14.80,1371.07,0.000000,0.000000,0
1107.06,0.73,0.32,0.46,-36.72,-6.59,-39.07,43.18,35.55,14.80,1371.07,0.000000,1218.195922,0
1107.28,-0.27,-0.70,0.91,-2.35,7.06,6.12,48.73,34.73,6.53,1368.19,0.000000,1218.195922,0
1107.49,-1.00,-1.65,-0.84,-12.71,1.41,-0.94,53.73,31.18,-2.76,1365.09,0.000000,1218.195922,0
1107.70,-2.83,-1.03,-1.16,-9.41,0.94,1.88,48.73,35.73,0.31,1364.64,0.000000,0.000000,0
1107.91,-4.19,-0.28,2.13,-12.71,-5.18,2.35,46.64,22.45,27.55,1364.20,0.000000,0.000000,0
1108.12,-3.05,-1.30,1.31,-10.36,-0.94,0.00,57.18,-17.36,15.31,1361.10,0.000000,0.000000,0
1108.34,-0.18,0.89,-0.72,-7.06,1.41,0.94,57.36,-24.64,1.94,1360.32,0.000000,0.000000,0
1108.55,1.01,0.65,-3.22,-13.65,0.00,-1.41,60.09,0.55,18.98,1357.89,0.000000,1218.220703,0
1108.76,-1.30,0.03,-0.96,-7.06,-1.88,-1.41,52.45,16.82,24.90,1358.77,0.000000,0.000000,0
1108.97,-2.62,-1.82,2.77,-11.77,-5.18,-1.88,57.00,-1.45,23.47,1356.89,0.000000,0.000000,0
1109.19,2.09,-1.27,0.90,-9.41,-0.47,0.94,55.09,-27.09,1.33,1353.57,0.000000,0.000000,0
1109.40,4.07,-0.58,0.50,-9.89,-1.41,-6.12,48.36,-19.27,24.29,1352.02,0.000000,0.000000,0
1109.61,0.61,-2.00,-3.03,-34.83,-2.35,20.71,61.36,0.00,17.24,1350.14,0.000000,0.000000,0
1109.83,-0.09,-1.39,-1.29,-6.59,-0.94,0.00,62.82,19.73,-0.20,1348.48,0.000000,0.000000,0
1110.04,-3.73,1.79,3.37,-9.41,-40.48,41.42,61.64,20.55,0.10,1347.93,0.000000,0.000000,0
1110.25,0.00,-0.84,4.32,-6.59,4.24,-2.35,46.91,-30.55,11.12,1346.94,0.000000,0.000000,0
1110.46,4.03,1.63,0.69,-0.94,-20.24,-56.49,40.09,1.18,38.47,1345.94,0.000000,0.000000,0
1110.68,-1.66,-3.07,-1.37,-9.41,0.94,-6.59,49.55,9.27,30.41,1343.95,0.000000,0.000000,0
1110.89,1.66,0.04,-1.27,-5.18,0.00,1.88,57.82,20.18,14.59,1342.85,0.000000,0.000000,0
1111.10,-1.91,1.98,3.06,-10.83,-3.77,1.88,54.55,14.73,22.96,1342.40,0.000000,0.000000,0
1111.32,2.07,0.49,1.73,-9.41,-0.94,-2.35,40.09,-6.18,37.86,1339.09,0.000000,0.000000,0
1111.53,4.59,-0.50,2.86,-6.59,0.47,-2.35,38.73,7.00,38.88,1339.75,0.000000,0.000000,0
1111.74,3.88,-0.94,2.02,-6.12,-0.94,-3.30,51.64,24.45,18.78,1337.76,0.000000,0.000000,0
1111.96,4.04,-2.30,2.03,-9.41,-0.47,-0.94,66.18,11.09,-11.94,1335.00,0.000000,0.000000,0
1112.17,8.89,0.64,2.09,-7.53,-4.24,-3.77,57.36,-25.36,-9.80,1335.66,0.000000,0.000000,0
1112.38,2.88,-1.69,0.22,-8.47,-1.88,-5.18,23.45,4.09,33.67,1333.56,0.000000,0.000000,0
1112.59,-1.59,-2.34,2.09,-14.59,0.94,-1.41,63.64,-10.91,7.76,1330.58,0.000000,0.000000,0
1112.81,-0.08,-1.98,0.21,-6.59,0.47,-0.47,62.82,-17.45,-13.16,1331.91,0.000000,0.000000,0
1113.02,-3.48,2.51,-0.55,-6.12,0.94,2.82,64.64,-9.73,-20.61,1328.15,0.000000,0.000000,0
1113.23,-0.85,1.73,1.81,-10.83,0.47,-8.47,56.64,-17.36,16.12,1326.28,0.000000,0.000000,0
1113.45,-2.95,-0.63,-0.16,-5.65,3.30,0.94,48.55,-31.27,4.29,1326.17,0.000000,0.000000,0
1113.66,-1.54,2.44,-5.09,-9.89,0.47,4.71,64.09,-15.64,-9.69,1321.87,0.000000,0.000000,0
1113.87,1.98,0.24,-0.65,-2.35,-0.94,-7.06,62.36,19.91,0.00,1321.87,0.000000,0.000000,0
1114.09,0.34,1.27,0.94,-13.65,-5.18,6.59,64.45,16.64,-5.41,1319.55,0.000000,0.000000,0
1114.30,-0.62,0.79,3.55,-10.36,-0.94,-3.30,64.27,-5.82,9.29,1318.12,0.000000,1218.316528,0
1114.51,-0.36,-0.79,1.18,-5.65,8.00,0.00,44.55,-33.36,7.35,1319.11,0.000000,1218.316528,0
1114.72,3.20,-2.25,-3.65,-5.18,6.59,-1.41,53.27,-27.73,3.67,1315.69,0.000000,0.000000,0
1114.94,3.59,-0.73,0.03,-9.89,-2.35,12.24,66.18,6.91,-17.55,1313.15,0.000000,0.000000,0
1115.15,4.46,-0.94,-2.01,-15.06,0.47,-3.30,68.00,1.73,-9.69,1312.16,0.000000,0.000000,0
1115.36,3.50,-0.89,0.99,-6.12,3.30,8.94,60.18,-5.45,-31.43,1310.73,0.000000,0.000000,0
1115.58,1.60,1.76,-2.86,-12.71,0.94,-0.94,66.00,-5.45,-19.69,1308.42,0.000000,0.000000,0
1115.79,0.14,-0.02,0.89,-10.36,1.88,3.30,66.36,10.36,-8.78,1306.32,0.000000,0.000000,0
1116.00,-0.46,-1.10,-0.62,-9.41,-1.88,-0.94,66.00,9.45,-17.65,1304.23,0.000000,0.000000,0
1116.22,-1.43,-1.13,0.96,-8.00,0.94,-0.94,63.27,10.64,-23.27,1301.48,0.000000,0.000000,0
1116.43,0.86,-2.10,-3.38,-17.42,-0.94,1.41,54.18,20.27,-31.12,1300.16,0.000000,0.000000,0
1116.64,1.37,-1.91,-1.31,-7.53,-2.82,1.41,23.82,32.64,-38.37,1301.26,0.000000,0.000000,0
1116.85,-2.03,3.88,0.23,-7.53,-5.18,7.53,14.00,31.18,-40.71,1297.63,0.000000,0.000000,0
1117.07,3.67,0.46,0.64,-7.06,-1.41,-8.94,57.36,15.00,-30.00,1296.09,0.000000,0.000000,0
1117.28,8.56,0.46,0.38,-10.36,0.94,-0.94,55.73,-23.91,-21.33,1294.77,0.000000,0.000000,0
1117.49,5.52,0.99,-1.45,-7.53,0.94,-4.71,44.55,-6.82,33.88,1292.02,0.000000,0.000000,0
1117.71,2.94,0.07,1.73,-11.30,-2.82,-3.77,38.82,24.73,33.06,1290.37,0.000000,0.000000,0
1117.92,3.51,-0.16,3.23,-8.47,1.88,-2.35,59.00,15.45,15.20,1290.15,0.000000,0.000000,0
1118.13,3.96,-1.22,0.79,-7.53,0.00,-2.35,65.45,8.64,4.49,1286.30,0.000000,0.000000,0
1118.35,2.52,-1.70,0.50,-11.77,0.00,-1.88,68.00,2.64,-13.27,1283.11,0.000000,0.000000,0
1118.56,2.42,-3.57,2.22,-9.89,2.82,-0.47,55.18,-13.00,-34.39,1284.10,0.000000,0.000000,0
1118.77,4.34,-1.94,0.87,-6.12,2.35,-1.41,23.18,-37.27,-22.14,1282.89,0.000000,0.000000,0
1118.98,4.84,-6.23,-1.92,-10.36,5.65,-2.35,44.73,-25.36,21.02,1281.57,0.000000,0.000000,0
1119.20,5.20,0.26,-0.33,-9.41,-0.47,2.82,65.45,-7.36,5.61,1278.17,0.000000,0.000000,0
1119.41,4.51,-0.64,0.53,-13.65,1.88,-3.77,62.00,10.18,13.67,1276.85,0.000000,0.000000,0
1119.62,1.72,-0.07,0.91,-13.18,-0.94,0.94,66.09,13.55,-3.06,1273.67,0.000000,0.000000,0
1119.84,0.55,0.30,2.28,-10.83,-0.47,-4.71,67.27,-1.55,1.63,1271.91,0.000000,0.000000,0
1120.05,2.31,-3.74,-0.51,-8.00,5.18,-1.41,65.09,-13.55,-12.65,1268.29,0.000000,0.000000,0
1120.26,2.38,-0.36,-1.57,-11.30,-3.30,6.59,56.82,-6.55,-34.90,1268.07,0.000000,0.000000,0
1120.47,2.49,0.39,-0.08,-8.47,0.47,-6.12,62.45,-16.55,-18.78,1266.10,0.000000,0.000000,0
1120.69,1.03,-0.82,-1.44,-8.47,0.47,0.47,63.45,-17.64,-13.37,1266.32,0.000000,0.000000,0
1120.90,-0.02,0.49,1.32,-8.94,-0.94,1.41,64.82,-13.64,-14.59,1264.23,0.000000,0.000000,0
1121.11,0.10,1.19,1.56,-12.71,0.00,-0.47,56.45,-25.73,-7.65,1261.82,0.000000,0.000000,0
1121.33,0.99,0.01,-0.30,-8.47,2.82,-1.41,45.73,-33.91,-1.84,1259.96,0.000000,0.000000,0
1121.54,2.83,-2.14,-3.34,-16.48,0.47,0.00,63.73,-13.55,4.49,1257.87,0.000000,0.000000,0
1121.75,2.95,-2.23,-1.63,-13.18,-2.82,4.24,64.73,8.64,-20.31,1258.09,0.000000,0.000000,0
1121.97,2.55,0.68,-3.39,-0.94,1.88,7.06,59.00,8.18,-32.55,1256.23,0.000000,0.000000,0
1122.18,-1.59,7.13,-3.55,-10.83,3.77,-16.00,44.73,38.64,4.69,1253.82,0.000000,0.000000,0
1122.39,2.26,-2.81,0.56,-8.00,3.77,0.94,31.36,43.18,13.37,1253.60,0.000000,0.000000,0
1122.60,9.44,1.43,-2.79,14.12,20.24,-49.90,33.82,28.27,-38.78,1252.72,0.000000,0.000000,0
1122.82,7.77,-1.57,-4.39,-15.53,-2.82,2.35,56.36,-17.91,-27.55,1249.54,0.000000,0.000000,0
1123.03,7.04,-0.64,1.94,-8.00,-1.88,-0.94,66.00,-11.18,-11.73,1249.43,0.000000,0.000000,0
1123.24,6.26,-1.58,-0.23,-3.77,-2.35,-0.94,60.91,-8.18,15.51,1246.81,0.000000,0.000000,0
1123.46,1.01,0.91,-0.37,-9.89,-6.12,-5.65,65.00,7.27,7.04,1247.13,0.000000,0.000000,0
1123.67,1.76,-0.63,3.32,-10.83,0.00,-3.30,65.27,-4.00,7.76,1244.29,0.000000,0.000000,0
1123.88,3.31,-2.03,1.15,-7.06,3.30,-2.35,57.64,-22.55,5.51,1241.33,0.000000,0.000000,0
1124.10,5.89,-3.42,-0.89,-10.36,0.94,1.88,65.55,-12.45,-0.61,1238.82,0.000000,0.000000,0
1124.31,5.87,0.49,-1.76,-11.30,0.94,0.47,67.55,-5.82,-2.45,1238.49,0.000000,0.000000,0
1124.52,3.14,-0.43,-1.59,-10.36,-1.41,1.88,64.82,16.36,-3.27,1235.54,0.000000,0.000000,0
1124.73,0.33,-0.96,-1.33,-8.47,1.88,1.41,56.82,26.91,-16.84,1235.10,0.000000,0.000000,0
1124.94,-0.67,1.21,-1.27,-10.36,-0.94,0.47,46.00,35.82,-16.53,1233.24,0.000000,0.000000,0
1125.16,0.07,1.89,1.64,-9.89,-3.77,-0.94,42.91,39.73,-1.22,1229.41,0.000000,0.000000,0
1125.37,-0.54,-1.39,3.31,-12.24,0.94,-0.47,61.82,19.27,3.67,1227.99,0.000000,0.000000,0
1125.58,-0.25,-1.27,0.38,-6.59,2.82,0.94,67.55,-3.82,-14.49,1229.30,0.000000,0.000000,0
1125.79,0.43,0.38,-3.65,-7.06,1.41,-0.47,64.91,10.27,-21.22,1226.25,0.000000,0.000000,0
1126.00,1.13,-0.12,-0.67,-14.59,-5.65,-2.35,45.27,34.64,-21.43,1223.08,0.000000,0.000000,0
1126.22,3.98,-0.96,-2.36,-9.89,1.88,-0.47,41.36,29.00,-34.29,1222.64,0.000000,0.000000,0
1126.43,2.59,-0.28,-1.99,-11.77,-0.94,0.47,25.82,7.45,-49.80,1220.13,0.000000,0.000000,0
1126.64,-0.37,0.30,-1.27,-8.47,-0.94,1.41,27.45,3.36,-49.80,1219.36,0.000000,0.000000,0
1126.85,1.45,1.26,-0.17,-10.36,0.00,0.00,38.73,0.55,-47.14,1216.42,0.000000,0.000000,0
1127.07,4.45,0.83,-1.07,-10.83,-0.94,-0.94,49.82,-17.00,-35.31,1212.70,0.000000,1218.529174,0
1127.28,5.68,0.80,-1.89,-14.12,0.94,0.47,58.73,-22.82,1.43,1210.19,0.000000,1218.529174,0
1127.49,5.20,-2.72,-0.89,-14.12,-5.18,-1.88,61.64,14.64,11.53,1208.99,0.000000,1218.529174,0
1127.70,3.68,0.31,2.75,-7.53,0.94,1.88,64.09,1.91,-25.51,1209.10,0.000000,0.000000,0
1127.92,2.92,1.32,-2.04,-8.00,8.94,0.00,60.45,-22.09,-3.88,1207.03,0.000000,0.000000,0
1128.13,-2.95,-1.92,-1.36,-9.41,-2.82,-0.47,67.27,9.55,-4.29,1203.32,0.000000,0.000000,0
1128.34,-5.62,1.05,-0.18,-9.89,-0.94,-0.94,64.73,10.36,6.22,1200.93,0.000000,0.000000,0
1128.56,-6.66,-1.55,0.70,-12.24,-5.65,-0.94,66.64,-8.55,-1.33,1199.18,0.000000,0.000000,0
1128.77,-7.77,-3.68,-1.67,-12.71,-1.88,-1.41,50.82,9.82,-40.00,1197.98,0.000000,0.000000,0
1128.98,-7.97,-1.19,-3.18,-0.47,-3.30,-4.24,8.82,49.09,15.10,1199.73,0.000000,0.000000,0
1129.19,0.81,-3.47,0.73,0.47,-3.30,-5.65,7.09,13.64,49.69,1194.93,0.000000,0.000000,0
1129.41,6.18,-0.04,-1.33,-3.77,13.18,-8.47,59.82,10.82,17.24,1191.01,0.000000,0.000000,0
1129.62,11.55,-0.92,-0.66,-11.30,-11.77,5.65,29.55,37.00,-30.92,1194.06,0.000000,0.000000,0
1129.83,4.38,2.62,-0.81,-15.53,-16.95,-3.30,53.36,-22.64,-26.43,1187.64,0.000000,0.000000,0
1130.05,4.95,-0.52,0.19,-10.83,0.94,-0.94,49.18,-27.73,12.65,1186.77,0.000000,0.000000,0
1130.26,3.84,-1.12,0.17,-6.12,-2.35,-4.71,45.27,-5.36,34.39,1184.59,0.000000,0.000000,0
1130.47,5.01,-0.02,-1.33,-9.89,0.47,0.94,56.27,18.64,18.47,1181.43,0.000000,0.000000,0
1130.69,4.35,-1.46,-0.11,-13.18,-2.82,0.00,52.45,29.82,-20.20,1179.37,0.000000,0.000000,0
1130.90,5.41,-1.79,1.32,-10.83,1.41,0.94,41.91,-7.45,-45.10,1178.61,0.000000,0.000000,0
1131.11,5.76,-0.31,-1.71,-4.71,5.65,-8.94,33.73,-38.36,-11.43,1177.19,0.000000,0.000000,0
1131.32,2.54,-3.00,-0.46,-10.36,-3.30,4.24,60.91,-20.09,1.73,1173.50,0.000000,0.000000,0
1131.54,4.78,0.66,-1.42,-9.89,5.18,1.41,52.82,-23.09,15.10,1173.28,0.000000,0.000000,0
1131.75,3.43,-5.10,-3.14,-19.30,-0.94,1.41,61.73,16.64,8.57,1169.04,0.000000,0.000000,0
1131.96,1.81,1.07,0.79,-8.00,1.41,3.77,55.64,19.91,-29.18,1169.69,0.000000,0.000000,0
1132.18,1.97,1.71,-0.51,-6.12,-1.41,-1.41,63.82,11.64,-20.82,1166.32,0.000000,0.000000,0
1132.39,-1.90,-0.49,-1.60,-34.83,4.24,-25.42,63.36,17.91,-11.53,1164.91,0.000000,0.000000,0
1132.60,-4.06,0.67,0.97,-6.12,2.35,8.47,58.09,22.82,10.61,1162.96,0.000000,0.000000,0
1132.81,-8.03,-1.36,-0.92,-10.83,0.47,-1.88,64.73,-3.82,8.98,1160.89,0.000000,0.000000,0
1133.03,-7.77,1.53,-1.04,-13.65,-2.35,-9.89,66.64,-0.36,4.90,1158.94,0.000000,0.000000,0
1133.24,-6.41,-1.52,-1.98,-8.00,0.47,-2.35,67.64,-6.09,-10.51,1157.31,0.000000,0.000000,0
1133.45,-5.80,1.05,-2.00,-9.41,-1.41,-1.41,59.55,24.36,2.24,1155.25,0.000000,0.000000,0
1133.67,-4.21,0.15,1.87,-7.53,-1.41,-5.18,45.27,7.45,35.10,1153.41,0.000000,0.000000,0
1133.88,0.53,-7.44,0.40,26.36,-27.30,-51.78,62.36,-19.00,-4.08,1150.48,0.000000,0.000000,0
1134.09,8.37,0.32,1.33,-2.82,1.41,-3.30,52.55,-29.00,-16.02,1149.18,0.000000,0.000000,0
1134.30,5.12,-4.46,0.12,-9.41,6.12,-6.59,51.00,-13.09,26.22,1146.90,0.000000,0.000000,0
1134.52,9.75,-1.22,0.99,-8.00,-1.88,4.24,67.55,-2.45,-14.49,1145.38,0.000000,0.000000,0
1134.73,11.26,0.11,0.05,-8.47,-6.12,-1.41,62.09,-6.09,14.90,1144.51,0.000000,0.000000,0
1134.94,5.02,0.93,0.39,-12.71,-0.94,0.94,63.45,18.73,-6.73,1141.05,0.000000,0.000000,0
1135.16,1.52,0.98,-0.84,-8.94,-0.94,1.41,61.91,22.09,-5.10,1137.15,0.000000,0.000000,0
1135.37,1.50,1.84,0.82,-11.77,0.47,0.47,61.27,21.91,0.10,1135.52,0.000000,0.000000,0
1135.58,-0.22,0.69,-0.13,-8.94,1.41,-1.88,60.36,17.55,11.22,1133.47,0.000000,0.000000,0
1135.80,-3.15,-1.89,-0.16,-7.53,0.94,-4.71,61.18,13.64,12.65,1131.41,0.000000,0.000000,0
1136.01,-1.17,-1.87,-2.72,0.94,-44.25,2.82,59.73,24.91,-7.35,1130.54,0.000000,0.000000,0
1136.22,3.59,1.58,0.80,-7.06,-0.47,-2.35,57.82,26.09,-13.67,1127.30,0.000000,0.000000,0
1136.43,0.32,2.64,-1.32,-12.71,0.94,6.12,63.00,18.09,-13.57,1125.24,0.000000,0.000000,0
1136.65,5.64,1.78,0.80,-5.18,-0.47,-1.41,53.18,27.73,13.37,1124.27,0.000000,0.000000,0
1136.86,8.42,-0.06,3.35,-9.41,-6.12,3.30,58.45,24.45,-16.02,1121.56,0.000000,0.000000,0
1137.07,6.78,2.10,-2.59,-8.47,-2.82,-6.12,58.73,-7.36,19.80,1119.62,0.000000,0.000000,0
1137.29,-2.54,-1.12,2.07,-6.59,0.94,-1.41,57.82,-5.36,21.33,1116.80,0.000000,0.000000,0
1137.50,0.66,-1.64,0.94,-3.30,-10.36,-32.95,62.27,-19.27,-13.16,1114.97,0.000000,0.000000,0
1137.71,5.94,0.79,0.47,-6.12,1.88,-2.35,49.18,-27.55,13.47,1115.18,0.000000,0.000000,0
1137.92,-0.65,-1.46,-2.50,-9.41,1.88,-2.35,51.55,-4.36,28.88,1111.29,0.000000,0.000000,0
1138.14,-1.42,0.03,-1.01,-11.30,2.82,3.77,61.00,4.45,17.14,1108.92,0.000000,0.000000,0
1138.35,-5.58,0.22,-0.93,-8.47,-1.41,-1.41,58.00,2.82,21.53,1107.95,0.000000,0.000000,0
1138.56,-7.30,-0.18,2.44,-11.77,-0.94,0.94,55.64,-26.18,2.76,1106.97,0.000000,0.000000,0
1138.78,-0.87,0.65,-0.62,-3.77,7.53,-7.06,38.36,-25.82,-35.82,1105.79,0.000000,0.000000,0
1138.99,-2.96,0.19,-1.03,-7.06,0.00,-2.35,48.36,-14.09,-38.78,1103.73,0.000000,0.000000,0
1139.20,-0.44,1.57,0.01,-13.18,0.47,-0.94,57.36,7.82,-34.18,1101.90,0.000000,0.000000,0
1139.42,-0.64,0.69,0.49,-8.00,0.94,-0.94,63.45,10.27,-24.59,1099.52,0.000000,0.000000,0
1139.63,-1.18,-1.06,-2.50,-9.41,5.18,-5.65,60.36,17.45,-24.39,1098.02,0.000000,0.000000,0
1139.84,3.59,0.43,-2.74,-8.47,-0.47,-0.47,36.27,34.18,-31.22,1095.10,0.000000,0.000000,0
1140.05,-0.34,0.66,0.70,-8.94,-1.88,0.94,30.00,27.27,-40.71,1093.48,0.000000,0.000000,0
1140.27,-4.26,0.69,2.57,-9.89,-6.59,-4.24,49.91,27.91,-27.24,1090.25,0.000000,0.000000,0
1140.48,-4.98,0.20,-0.14,-12.71,-1.41,-5.18,53.18,32.64,-1.12,1087.55,0.000000,0.000000,0
1140.69,-4.53,0.60,0.03,-10.36,-4.24,1.88,52.18,17.36,24.69,1088.52,0.000000,0.000000,0
1140.90,-5.56,-1.59,1.65,-7.06,6.59,-1.41,42.91,-26.82,21.53,1085.40,0.000000,0.000000,0
1141.12,-0.65,0.65,-3.47,-9.89,-1.41,3.30,52.55,-29.55,-11.43,1081.74,0.000000,0.000000,0
1141.33,-1.49,1.06,-2.32,-11.77,-2.35,-1.41,68.55,-1.45,-5.71,1080.23,0.000000,0.000000,0
1141.54,-1.89,0.16,0.49,-3.77,-0.94,-5.18,64.27,9.18,8.78,1079.37,0.000000,0.000000,0
1141.75,-2.73,-5.94,2.59,-12.24,-3.30,7.53,62.45,-12.27,-24.69,1075.38,0.000000,0.000000,0
1141.96,-1.01,-0.43,-0.24,-5.65,-0.47,-0.94,42.00,-7.27,-44.90,1074.95,0.000000,0.000000,0
1142.18,-3.30,1.62,1.73,-2.82,-0.47,0.94,37.55,4.00,-47.45,1072.58,0.000000,0.000000,0
1142.39,-3.40,3.02,3.99,-15.53,-0.94,0.94,58.73,9.45,-31.84,1070.43,0.000000,0.000000,0
1142.60,-2.18,-0.89,-1.05,-6.59,3.30,-0.47,65.27,-0.82,-21.12,1069.14,0.000000,0.000000,0
1142.81,-3.78,1.73,-0.70,-5.65,-0.94,-0.94,63.73,18.09,-14.29,1066.23,0.000000,0.000000,0
1143.02,-1.57,1.15,-0.92,-9.89,-0.94,-2.82,55.91,22.73,14.39,1063.87,0.000000,0.000000,0
1143.24,-2.10,-0.55,-0.27,-4.71,1.88,-7.53,52.18,10.82,27.24,1062.90,0.000000,0.000000,0
1143.45,-2.05,-1.26,-1.22,-10.83,0.00,-1.41,58.45,2.36,21.33,1062.04,0.000000,0.000000,0
1143.66,-0.64,-0.40,-1.56,-8.47,-1.41,-0.94,63.18,9.36,11.22,1060.21,0.000000,0.000000,0
1143.88,-3.44,1.09,2.10,-8.94,-3.30,-2.82,59.45,12.82,16.84,1058.60,0.000000,0.000000,0
1144.09,0.62,-1.50,2.65,-5.65,-29.66,-48.48,49.73,-26.45,13.16,1055.05,0.000000,0.000000,0
1144.30,7.37,-1.35,-0.02,-5.18,4.71,-3.77,38.00,-22.27,29.90,1052.91,0.000000,0.000000,0
1144.51,2.58,-2.39,0.37,-8.94,0.47,2.35,48.64,8.73,31.33,1050.97,0.000000,0.000000,0
1144.73,11.61,-3.12,1.92,-9.89,0.00,-2.35,66.36,7.64,-16.84,1049.25,0.000000,0.000000,0
1144.94,10.60,-0.40,0.58,-66.37,32.01,112.97,54.55,-19.18,17.04,1047.65,0.000000,0.000000,0
1145.15,-1.14,-0.55,3.69,-7.53,-8.00,-0.94,50.36,10.91,29.18,1045.07,0.000000,0.000000,0
1145.36,8.25,0.69,1.26,-5.18,3.77,-2.82,50.82,-14.73,25.31,1043.35,0.000000,0.000000,0
1145.58,6.55,-2.22,1.75,-12.71,-3.30,0.94,37.91,42.73,-0.10,1043.46,0.000000,0.000000,0
1145.79,6.59,1.69,1.88,-9.89,1.41,0.00,54.45,-1.91,-37.86,1040.99,0.000000,0.000000,0
1146.00,3.60,-1.22,-1.64,-7.53,-0.94,-2.82,59.91,-21.55,-1.33,1037.99,0.000000,0.000000,0
1146.22,0.95,-0.90,3.05,-12.24,-2.82,0.94,63.18,-17.64,-1.84,1035.09,0.000000,0.000000,0
1146.43,-1.83,0.14,-0.36,-8.47,5.18,-3.30,47.27,-33.45,-4.49,1034.34,0.000000,0.000000,0
1146.64,-4.58,-1.37,-2.67,-11.77,-1.88,0.94,58.45,-9.36,-31.73,1032.41,0.000000,0.000000,0
1146.86,-4.89,2.17,-1.77,-16.95,-1.41,-1.41,52.45,30.45,-18.16,1030.27,0.000000,0.000000,0
1147.07,-5.53,1.80,1.32,-8.00,-3.77,-2.82,41.18,22.36,32.76,1030.91,0.000000,0.000000,0
1147.28,-4.29,-2.91,-0.81,-10.36,0.47,0.00,50.82,-19.55,21.02,1026.73,0.000000,0.000000,0
1147.50,-3.29,0.66,-1.55,-9.89,-0.47,2.82,65.09,-13.64,-12.96,1025.98,0.000000,0.000000,0
1147.71,-0.22,0.19,-1.96,-8.47,1.41,-1.41,68.27,-1.45,-7.96,1021.05,0.000000,0.000000,0
1147.92,0.31,-0.28,0.31,-11.30,-0.47,2.35,66.00,11.91,-8.98,1019.34,0.000000,0.000000,0
1148.13,1.28,-1.03,-0.29,-10.36,-0.47,-0.47,66.82,10.64,-8.98,1017.31,0.000000,0.000000,0
1148.35,3.35,1.07,-1.86,-10.36,-1.41,-2.35,63.64,15.45,-17.96,1014.52,0.000000,0.000000,0
1148.56,3.31,-0.23,1.54,-9.89,-1.41,-1.88,64.73,5.27,-22.55,1013.35,0.000000,0.000000,0
1148.77,3.18,-0.19,0.27,-11.30,2.35,-1.88,61.18,-18.00,-19.69,1014.31,0.000000,0.000000,0
1148.99,4.38,-1.77,0.65,-10.83,0.47,-2.35,58.73,-24.18,-7.24,1010.46,0.000000,0.000000,0
1149.20,4.67,-1.42,0.92,-10.36,0.94,-1.88,51.18,-28.00,7.86,1007.46,0.000000,0.000000,0
1149.41,4.61,-1.92,-0.84,-10.36,1.41,-1.41,53.09,-11.91,23.88,1004.69,0.000000,0.000000,0
1149.63,3.13,-2.09,0.70,-12.71,-1.88,2.82,65.73,9.55,2.65,1003.83,0.000000,0.000000,0
1149.84,-0.55,1.63,0.31,-7.53,1.41,1.41,68.18,-0.18,-5.71,1001.15,0.000000,0.000000,0
1150.05,-2.66,2.51,-0.86,-13.65,0.94,-1.41,62.64,-1.73,15.20,996.88,0.000000,0.000000,0
1150.26,-3.41,2.16,-0.05,-10.36,-0.47,-1.88,45.36,-12.64,31.63,996.13,0.000000,0.000000,0
1150.48,-3.69,-0.44,-1.43,-5.65,0.94,-3.77,34.45,-33.09,19.08,994.32,0.000000,0.000000,0
1150.69,-3.01,0.75,-5.58,-13.65,-1.88,0.00,65.64,-8.27,-18.37,990.37,0.000000,0.000000,0
1150.90,-0.04,-0.35,0.08,-6.59,0.00,4.24,65.45,13.27,-13.88,989.51,0.000000,0.000000,0
1151.12,2.92,1.90,1.28,-8.94,-2.82,-4.71,68.00,4.09,-3.78,989.30,0.000000,0.000000,0
1151.33,0.70,-1.36,4.39,-8.94,4.24,-1.88,57.64,-25.00,-0.71,985.14,0.000000,0.000000,0
1151.54,0.95,-1.75,-1.77,-10.36,0.47,-0.94,56.09,-24.00,5.61,982.79,0.000000,0.000000,0
1151.76,0.73,-3.24,-2.02,-12.71,3.30,1.41,64.73,-11.73,-19.69,981.40,0.000000,0.000000,0
